Packet number,Gyroscope X (deg/s),Gyroscope Y (deg/s),Gyroscope Z (deg/s),Accelerometer X (g),Accelerometer Y (g),Accelerometer Z (g),Magnetometer X (G),Magnetometer Y (G),Magnetometer Z (G)
1,0.875,0.125,-0.0625,-0.222168,-0.02880859,-1.007324,0.1298828,0.02050781,1.081543
5,1.0625,0.375,-0.3125,-0.2182617,-0.02099609,-0.9960938,0.1274414,0.01953125,1.083008
9,1.4375,0.4375,-0.375,-0.222168,-0.02490234,-1.007324,0.1274414,0.01953125,1.081543
14,1.3125,0.25,-0.125,-0.2299805,-0.03662109,-1.026855,0.1298828,0.01953125,1.083008
18,1.125,0.0625,0.125,-0.2260742,-0.03271484,-1.015137,0.1298828,0.01953125,1.083008
22,0.9375,0,0.0625,-0.2299805,-0.02880859,-1.022949,0.128418,0.01953125,1.081543
26,0.25,-0.1875,0.25,-0.2260742,-0.02880859,-1.022949,0.128418,0.01953125,1.084473
30,0.0625,-0.0625,0.1875,-0.2260742,-0.03271484,-1.019043,0.128418,0.01953125,1.084473
34,0.125,-0.3125,0.5,-0.2260742,-0.03662109,-1.019043,0.1259766,0.01953125,1.081543
38,0,-0.375,0.6875,-0.222168,-0.02880859,-1.022949,0.128418,0.01953125,1.083008
42,-0.3125,-0.4375,0.4375,-0.2182617,-0.02880859,-1.019043,0.128418,0.01953125,1.083008
46,-0.5625,-0.625,0.25,-0.2143555,-0.02490234,-1.019043,0.1298828,0.01953125,1.083008
50,-0.6875,-0.1875,0.3125,-0.2182617,-0.02880859,-1.015137,0.1274414,0.01953125,1.083008
54,-0.625,-0.1875,0.125,-0.2182617,-0.02880859,-1.007324,0.1274414,0.01953125,1.083008
58,-0.5625,0,-0.1875,-0.2143555,-0.02880859,-1.007324,0.1274414,0.01953125,1.081543
62,-0.6875,-0.1875,-0.1875,-0.222168,-0.02880859,-1.019043,0.128418,0.02050781,1.083008
66,-0.4375,0.1875,-0.625,-0.2182617,-0.02880859,-1.01123,0.128418,0.02050781,1.083008
70,-0.375,0.0625,-0.5625,-0.2260742,-0.03271484,-1.007324,0.128418,0.01953125,1.083008
74,-0.4375,-0.0625,-0.6875,-0.2182617,-0.02880859,-1.007324,0.1274414,0.01953125,1.084473
78,-0.3125,0,-0.4375,-0.2299805,-0.02880859,-1.01123,0.1274414,0.01953125,1.084473
82,0,0,-0.25,-0.2260742,-0.02099609,-1.01123,0.1274414,0.01953125,1.081543
86,0.25,-0.0625,-0.4375,-0.222168,-0.02099609,-1.015137,0.1274414,0.01806641,1.081543
90,0.1875,-0.1875,-0.1875,-0.2260742,-0.02490234,-1.007324,0.1274414,0.01806641,1.081543
94,0.1875,0,-0.1875,-0.222168,-0.02880859,-1.01123,0.1274414,0.01806641,1.080566
98,0.3125,0.1875,0,-0.2299805,-0.02490234,-1.019043,0.1298828,0.02050781,1.080566
102,0.1875,0.1875,0.0625,-0.2182617,-0.02490234,-1.01123,0.1298828,0.02050781,1.080566
106,0.1875,0.0625,0,-0.2182617,-0.02099609,-1,0.128418,0.01806641,1.079102
110,0.25,0,0.0625,-0.2182617,-0.02490234,-1.007324,0.128418,0.01953125,1.083008
114,0.75,0,-0.0625,-0.2143555,-0.02880859,-1.003906,0.128418,0.01953125,1.083008
118,1.0625,-0.25,0.125,-0.2143555,-0.02490234,-1.003906,0.1274414,0.01660156,1.080566
123,0.625,0.0625,-0.1875,-0.222168,-0.03271484,-1.019043,0.128418,0.02050781,1.084473
127,0.5,0.1875,0,-0.2182617,-0.03271484,-1.019043,0.1259766,0.01953125,1.084473
131,0.625,0,0,-0.2260742,-0.03271484,-1.015137,0.1259766,0.01953125,1.084473
135,0.25,0,0,-0.222168,-0.03271484,-1.015137,0.1274414,0.01953125,1.083008
139,0.0625,0,0.0625,-0.222168,-0.02880859,-1.019043,0.128418,0.02050781,1.083008
143,0.0625,0,0.0625,-0.2260742,-0.03271484,-1.022949,0.128418,0.02050781,1.083008
147,-0.25,-0.125,-0.0625,-0.2182617,-0.03271484,-1.019043,0.128418,0.01953125,1.083008
151,-0.0625,-0.1875,0.1875,-0.2182617,-0.03662109,-1.015137,0.1259766,0.01806641,1.083008
155,-0.25,-0.3125,0.0625,-0.2182617,-0.02880859,-1.007324,0.1259766,0.01806641,1.083008
159,-0.125,-0.1875,0.0625,-0.222168,-0.02880859,-1.01123,0.1274414,0.01806641,1.084473
163,0.125,-0.125,0,-0.2143555,-0.02880859,-1.003906,0.128418,0.01953125,1.083008
167,0.3125,0.125,-0.3125,-0.2182617,-0.02099609,-1.019043,0.128418,0.01953125,1.083008
171,0,0.375,-0.5,-0.222168,-0.02880859,-1.003906,0.128418,0.02050781,1.083008
175,0.125,0.375,-0.4375,-0.2182617,-0.02880859,-1.01123,0.1298828,0.01806641,1.084473
179,0.1875,0.4375,-0.4375,-0.222168,-0.03271484,-1.015137,0.1298828,0.01806641,1.084473
183,0.1875,0.25,-0.4375,-0.222168,-0.03271484,-1.01123,0.1274414,0.01806641,1.083008
187,0.0625,0.25,-0.375,-0.222168,-0.02099609,-1.019043,0.1274414,0.01953125,1.081543
191,0.375,0.125,-0.3125,-0.222168,-0.02490234,-1.015137,0.1274414,0.01953125,1.081543
195,0.6875,0.1875,-0.1875,-0.2260742,-0.02880859,-1.01123,0.1274414,0.01953125,1.084473
199,0.3125,0.1875,-0.375,-0.2260742,-0.02490234,-1.01123,0.1298828,0.01953125,1.083008
203,0.3125,0.375,-0.1875,-0.2260742,-0.02880859,-1.022949,0.1298828,0.01953125,1.083008
207,0,0.1875,0,-0.222168,-0.02490234,-1.015137,0.125,0.01953125,1.083008
211,-0.0625,0.1875,0.0625,-0.222168,-0.02880859,-1.015137,0.128418,0.01953125,1.080566
215,0.125,0,0.0625,-0.222168,-0.02880859,-1.01123,0.128418,0.01953125,1.080566
219,0.3125,-0.0625,-0.0625,-0.222168,-0.02880859,-1.003906,0.1259766,0.01806641,1.083008
223,0.5625,0.1875,0.0625,-0.2182617,-0.03271484,-1.007324,0.1274414,0.01953125,1.080566
227,0.875,0.4375,-0.0625,-0.2143555,-0.02880859,-1.003906,0.1274414,0.01953125,1.080566
232,0.875,0.3125,-0.5625,-0.222168,-0.03271484,-1.01123,0.1274414,0.01806641,1.084473
236,0.75,0.5625,-0.4375,-0.222168,-0.03662109,-1.01123,0.1274414,0.01953125,1.084473
240,0.75,0.4375,-0.375,-0.222168,-0.03662109,-1.015137,0.1274414,0.01806641,1.085938
244,0.375,0.25,-0.5625,-0.2260742,-0.02490234,-1.026855,0.1274414,0.01806641,1.085938
248,0.0625,0.1875,-0.4375,-0.2260742,-0.02880859,-1.019043,0.1274414,0.01806641,1.084473
252,-0.375,0.0625,-0.3125,-0.2299805,-0.02490234,-1.019043,0.1274414,0.01953125,1.084473
256,-0.4375,-0.1875,-0.125,-0.2260742,-0.03271484,-1.022949,0.1274414,0.01953125,1.084473
260,-0.1875,-0.5,0.3125,-0.222168,-0.03662109,-1.015137,0.128418,0.01953125,1.085938
264,-0.0625,-0.5,0.125,-0.2260742,-0.03662109,-1.003906,0.1274414,0.02050781,1.084473
268,-0.3125,-0.25,0.1875,-0.2143555,-0.02880859,-1.01123,0.1274414,0.02050781,1.084473
272,-0.3125,-0.125,0.125,-0.2260742,-0.03271484,-1.015137,0.1274414,0.01806641,1.084473
276,-0.125,0.0625,0,-0.2260742,-0.02880859,-1.007324,0.1274414,0.01806641,1.085938
280,0.0625,0.1875,-0.25,-0.222168,-0.02880859,-1.01123,0.1274414,0.01806641,1.085938
284,0.25,0.1875,-0.3125,-0.2182617,-0.02880859,-1.01123,0.128418,0.02050781,1.084473
288,0.3125,0.4375,-0.5625,-0.2182617,-0.02880859,-1.015137,0.1298828,0.01953125,1.085938
292,0.4375,0.3125,-0.625,-0.222168,-0.03662109,-1.003906,0.1298828,0.01953125,1.085938
296,0.375,0.375,-0.3125,-0.2182617,-0.02880859,-1.019043,0.1259766,0.01953125,1.083008
300,0.25,0.3125,-0.375,-0.222168,-0.03271484,-1.015137,0.128418,0.01806641,1.085938
304,0.0625,0.1875,-0.4375,-0.2104492,-0.03271484,-1.007324,0.128418,0.01806641,1.085938
308,0.1875,0.125,-0.375,-0.222168,-0.03271484,-1.015137,0.128418,0.01806641,1.084473
312,0.3125,0.3125,-0.5625,-0.222168,-0.02490234,-1.01123,0.128418,0.01806641,1.083008
316,0.5,0.1875,-0.5,-0.222168,-0.03271484,-1.015137,0.128418,0.01806641,1.083008
320,0.5,0.1875,-0.375,-0.2182617,-0.03271484,-1.01123,0.1274414,0.01953125,1.085938
324,0.625,0.1875,-0.375,-0.222168,-0.02490234,-1.01123,0.1274414,0.01806641,1.086914
328,0.4375,0.3125,-0.25,-0.2182617,-0.02880859,-1.019043,0.1274414,0.01806641,1.086914
332,0.5625,0.1875,-0.0625,-0.222168,-0.02880859,-1.022949,0.1274414,0.01806641,1.085938
336,0.3125,0.125,-0.0625,-0.2260742,-0.03271484,-1.015137,0.1259766,0.01953125,1.088379
341,0,0.375,-0.5,-0.222168,-0.03271484,-1.007324,0.1274414,0.01660156,1.086914
345,0.25,0.25,-0.6875,-0.222168,-0.03271484,-1.01123,0.1274414,0.01660156,1.086914
349,0.375,0.4375,-0.6875,-0.2260742,-0.02490234,-1.015137,0.1274414,0.01806641,1.081543
353,0.5,0.25,-0.5625,-0.222168,-0.02880859,-1.01123,0.1274414,0.01806641,1.089844
357,0.625,0.1875,-0.5625,-0.222168,-0.02880859,-1.01123,0.1274414,0.01806641,1.089844
361,0.6875,0.1875,-0.5625,-0.2143555,-0.02490234,-1.01123,0.1259766,0.01953125,1.084473
365,0.5,0.3125,-0.5,-0.2182617,-0.02490234,-1.015137,0.128418,0.01806641,1.086914
369,0.5625,0.375,-0.625,-0.222168,-0.02490234,-1.007324,0.128418,0.01806641,1.086914
373,0.5,0.625,-0.6875,-0.2182617,-0.02490234,-1.007324,0.1259766,0.01660156,1.083008
377,0.625,0.5,-0.9375,-0.2182617,-0.02099609,-1.015137,0.1259766,0.01806641,1.088379
381,0.5,0.3125,-0.8125,-0.222168,-0.02880859,-1.01123,0.1259766,0.01806641,1.088379
385,0.4375,0.625,-1.0625,-0.222168,-0.03271484,-1.015137,0.1259766,0.01953125,1.085938
389,0.375,0.5625,-1.0625,-0.222168,-0.02880859,-1.022949,0.1274414,0.01953125,1.085938
393,0.3125,0.375,-1.125,-0.2182617,-0.03271484,-1.015137,0.1274414,0.01953125,1.085938
397,0.625,0.75,-1.0625,-0.222168,-0.02880859,-1.007324,0.125,0.01806641,1.088379
401,0.6875,0.8125,-1.1875,-0.222168,-0.02880859,-1.019043,0.125,0.01806641,1.085938
405,0.625,0.75,-1.125,-0.2104492,-0.02880859,-1.007324,0.125,0.01806641,1.085938
409,0.4375,0.8125,-1.1875,-0.2182617,-0.02880859,-1.019043,0.1259766,0.01806641,1.084473
413,0.625,0.875,-1.1875,-0.222168,-0.03271484,-1.007324,0.1259766,0.01953125,1.086914
417,0.75,0.875,-1.125,-0.222168,-0.02880859,-1.007324,0.1259766,0.01953125,1.086914
421,0.75,0.6875,-1.0625,-0.2260742,-0.02880859,-1.01123,0.1235352,0.01806641,1.085938
425,0.9375,0.625,-1,-0.222168,-0.03271484,-1.01123,0.125,0.01660156,1.089844
429,1,0.375,-0.8125,-0.2182617,-0.03662109,-1.015137,0.125,0.01660156,1.089844
433,0.9375,0.5,-0.8125,-0.2182617,-0.02880859,-1.015137,0.125,0.01806641,1.088379
437,0.6875,0.6875,-0.875,-0.2182617,-0.03662109,-1.01123,0.125,0.01806641,1.086914
441,0.5625,0.875,-1.125,-0.222168,-0.03271484,-1.015137,0.125,0.01806641,1.086914
445,0.6875,1,-1.1875,-0.2182617,-0.03271484,-1.01123,0.1259766,0.01806641,1.086914
450,1.125,1.4375,-1.6875,-0.2182617,-0.03662109,-1.01123,0.1235352,0.01953125,1.086914
454,1.125,1.625,-2,-0.2143555,-0.03271484,-1.019043,0.1225586,0.01806641,1.088379
458,1.125,1.5625,-1.875,-0.2182617,-0.02490234,-1.022949,0.1225586,0.01806641,1.088379
462,1,1.5,-1.9375,-0.2143555,-0.03271484,-1.015137,0.1235352,0.01806641,1.089844
466,1.125,1.3125,-2,-0.2104492,-0.03271484,-1.019043,0.125,0.01806641,1.088379
470,1.125,1.0625,-2,-0.2104492,-0.02880859,-1.015137,0.125,0.01806641,1.088379
474,1.5,1.25,-1.9375,-0.2182617,-0.02880859,-1.01123,0.1235352,0.01806641,1.088379
478,1.6875,1.1875,-2,-0.2104492,-0.02880859,-1.015137,0.1235352,0.01806641,1.089844
482,1.8125,1.375,-2,-0.2104492,-0.02099609,-1.003906,0.1235352,0.01806641,1.089844
486,1.625,1.5,-2.1875,-0.206543,-0.02099609,-1.007324,0.1225586,0.01660156,1.09082
490,1.5,1.5625,-2.125,-0.206543,-0.01708984,-1.015137,0.1235352,0.01806641,1.089844
494,1.9375,1.4375,-2.25,-0.2104492,-0.01708984,-1.007324,0.1235352,0.01806641,1.089844
498,2.25,1.5625,-2.5,-0.2104492,-0.02490234,-1,0.1225586,0.01806641,1.09082
502,2.4375,1.375,-2.4375,-0.2143555,-0.01708984,-1.003906,0.1210938,0.01660156,1.092285
506,2.6875,1.8125,-2.75,-0.2143555,-0.02490234,-0.9960938,0.1210938,0.01660156,1.092285
510,3.25,1.8125,-3,-0.2182617,-0.02490234,-1,0.1186523,0.01953125,1.09375
514,3.4375,2,-3.375,-0.222168,-0.02880859,-1.007324,0.1210938,0.01806641,1.09375
518,3.875,2.5625,-3.375,-0.2299805,-0.02490234,-0.9921875,0.1210938,0.01806641,1.09375
522,4.1875,2.9375,-3.625,-0.222168,-0.02099609,-1.003906,0.1186523,0.01513672,1.092285
526,4.625,3.1875,-3.625,-0.2299805,-0.01708984,-0.9960938,0.1171875,0.01806641,1.096191
530,5.625,3.625,-3.5625,-0.2299805,-0.02490234,-1,0.1171875,0.01806641,1.096191
534,6.1875,3.5,-3.0625,-0.2299805,-0.02099609,-1,0.1171875,0.01806641,1.096191
538,6.8125,4,-3,-0.2299805,-0.02490234,-1.007324,0.1186523,0.01513672,1.096191
542,7.25,3.9375,-2.875,-0.2338867,-0.02880859,-1.007324,0.1186523,0.01513672,1.096191
546,7.3125,3.625,-2.5625,-0.2260742,-0.03271484,-1.007324,0.1171875,0.01806641,1.100586
550,7.625,3.375,-2.375,-0.2260742,-0.04052734,-1.015137,0.1162109,0.01806641,1.099121
554,7.3125,3.0625,-2.25,-0.222168,-0.04443359,-1.019043,0.1162109,0.01806641,1.099121
559,4.875,2.6875,-2.9375,-0.1948242,-0.03271484,-1.038086,0.1147461,0.01660156,1.101563
563,3.5,2.6875,-2.875,-0.2026367,-0.04052734,-1.041992,0.1147461,0.01513672,1.103027
567,3.875,2.25,-3.0625,-0.190918,-0.04833984,-1.026855,0.1147461,0.01513672,1.104492
571,4.875,2.625,-3,-0.1713867,-0.04443359,-1.003906,0.1147461,0.01513672,1.104492
575,5.375,3.375,-3.5,-0.1635742,-0.02880859,-1.003906,0.1147461,0.01416016,1.106934
579,5.5625,3.3125,-4.375,-0.1635742,-0.01708984,-1.003906,0.1137695,0.01416016,1.104492
583,5.0625,3.4375,-5.25,-0.1635742,-0.02880859,-1,0.1137695,0.01416016,1.104492
587,5.1875,3.5,-5.625,-0.175293,-0.02490234,-0.9960938,0.1113281,0.01660156,1.106934
591,5.8125,4,-5.25,-0.1870117,-0.02880859,-1,0.1098633,0.01513672,1.106934
595,6.0625,4.1875,-4.9375,-0.1987305,-0.03662109,-1.007324,0.1098633,0.01513672,1.106934
599,6.8125,3.6875,-4.5625,-0.1948242,-0.02880859,-1.003906,0.1074219,0.01416016,1.106934
603,7.4375,3.0625,-3.875,-0.1987305,-0.04052734,-1.003906,0.105957,0.01416016,1.108398
607,7.8125,2.5,-3.4375,-0.206543,-0.03662109,-1.007324,0.105957,0.01416016,1.108398
611,7.6875,1.9375,-2.375,-0.2182617,-0.03662109,-1.01123,0.1049805,0.01269531,1.106934
615,7,1.5625,-1.375,-0.222168,-0.04052734,-1.015137,0.1035156,0.01123047,1.111328
619,6.5,0.5625,-0.3125,-0.237793,-0.04443359,-1.015137,0.1035156,0.01123047,1.111328
623,6.75,-0.0625,0.8125,-0.2416992,-0.04833984,-1.026855,0.1010742,0.01269531,1.109863
627,6.6875,-0.5,1.875,-0.2416992,-0.05615234,-1.038086,0.1010742,0.01123047,1.111328
631,6.75,-0.875,3.5,-0.2416992,-0.04833984,-1.038086,0.1010742,0.01123047,1.111328
635,5.625,-2.3125,5,-0.237793,-0.06005859,-1.057129,0.1025391,0.008789063,1.111328
639,5,-4.1875,6.5,-0.2299805,-0.05615234,-1.053711,0.1010742,0.008789063,1.11377
643,4.8125,-5.3125,6.8125,-0.2143555,-0.05224609,-1.03418,0.1010742,0.008789063,1.11377
647,5.125,-4.625,6.5625,-0.1987305,-0.04833984,-1.015137,0.09765625,0.01025391,1.111328
651,5.1875,-2.625,5.5625,-0.1791992,-0.04443359,-1.003906,0.09863281,0.008789063,1.115234
655,5.1875,-0.9375,3.6875,-0.1557617,-0.04052734,-1.019043,0.09863281,0.008789063,1.115234
659,3.8125,0.5625,1.4375,-0.1401367,-0.04052734,-1.019043,0.09765625,0.01025391,1.112305
663,2.375,0.9375,-0.75,-0.1362305,-0.04052734,-1.026855,0.09619141,0.007324219,1.111328
668,-4.25,-7.6875,-7.375,-0.1674805,-0.07958984,-1.049805,0.08496094,0.003417969,1.11377
672,-4.125,-8.5,-6.9375,-0.1791992,-0.08349609,-1.061035,0.08496094,0.003417969,1.11377
676,-5.0625,-9.0625,-6.6875,-0.1870117,-0.07568359,-1.07666,0.08398438,0.004882813,1.111328
680,-6.875,-10.0625,-6.375,-0.2026367,-0.06787109,-1.07666,0.08007813,0.003417969,1.109863
684,-8.4375,-11.0625,-6.1875,-0.206543,-0.06787109,-1.091797,0.08007813,0.003417969,1.109863
688,-10.3125,-11.5625,-5.125,-0.2260742,-0.06005859,-1.087891,0.07861328,0.001953125,1.109863
692,-11.375,-12,-4,-0.237793,-0.04052734,-1.091797,0.07373047,0,1.108398
696,-12.125,-11.625,-2.375,-0.237793,-0.02490234,-1.064941,0.07373047,0,1.108398
700,-10.625,-9.4375,-1.5,-0.1870117,-0.005371094,-1.038086,0.07275391,0.001953125,1.104492
704,-12.25,4.4375,-3.375,-0.1831055,0.05664063,-0.9541016,0.06884766,0,1.100586
708,-17,16.1875,-6,-0.222168,0.1152344,-0.9921875,0.06884766,0,1.100586
712,-18.8125,17.9375,-6.625,-0.2607422,0.07226563,-1.049805,0.06494141,-0.00390625,1.099121
716,-15.3125,13.1875,-2.8125,-0.3076172,-0.001464844,-1.038086,0.05859375,-0.005371094,1.097656
720,-3.9375,9.1875,-0.3125,-0.3193359,0.001953125,-0.8852539,0.05859375,-0.005371094,1.097656
724,2.5625,4.3125,4.3125,-0.3154297,-0.005371094,-0.8925781,0.05517578,-0.005371094,1.09082
728,5.0625,-2.5625,12,-0.3037109,-0.001464844,-0.9882813,0.05126953,-0.006835938,1.09082
732,2.3125,-9.75,17.4375,-0.2919922,0.009765625,-1.03418,0.05126953,-0.006835938,1.09082
736,-0.4375,-14.4375,20.25,-0.2841797,-0.001464844,-1.026855,0.05126953,-0.009277344,1.089844
740,-2.25,-17.25,22.875,-0.2763672,-0.04052734,-1.026855,0.05029297,-0.01074219,1.083008
744,-2.625,-18.9375,25.5625,-0.2646484,-0.04443359,-1.03418,0.05029297,-0.01074219,1.083008
748,-0.1875,-21.25,25.3125,-0.2646484,-0.03271484,-1.038086,0.05126953,-0.01074219,1.080566
752,2.1875,-21.75,23.75,-0.2568359,-0.04443359,-1.053711,0.05029297,-0.01464844,1.076172
756,2.6875,-21.375,22.4375,-0.2529297,-0.06005859,-1.064941,0.05029297,-0.01464844,1.076172
760,2.3125,-20.75,21,-0.237793,-0.08349609,-1.091797,0.05273438,-0.01611328,1.072266
764,1.75,-19.8125,19.625,-0.2260742,-0.08740234,-1.106934,0.05273438,-0.01611328,1.068359
768,0.6875,-18.75,17.0625,-0.2143555,-0.07177734,-1.106934,0.05273438,-0.01611328,1.068359
772,-0.8125,-17.5,13.875,-0.206543,-0.06005859,-1.114746,0.05371094,-0.01464844,1.062988
777,0.625,-3.1875,-7.375,-0.2299805,-0.06005859,-1.114746,0.05029297,-0.01611328,1.036133
781,1.75,-2.375,-8.1875,-0.2416992,-0.06005859,-1.164551,0.05029297,-0.01611328,1.026855
785,-0.4375,0.25,-10.1875,-0.2338867,-0.005371094,-1.091797,0.05029297,-0.01611328,1.026855
789,-2.5625,4.625,-13.5,-0.2802734,0.01757813,-1.083984,0.04785156,-0.01318359,1.017578
793,-0.0625,8.3125,-16.3125,-0.3037109,0.005859375,-1.064941,0.04785156,-0.01074219,1.009766
797,6,12.4375,-17.25,-0.3076172,-0.005371094,-1.068848,0.04785156,-0.01074219,1.009766
801,10.6875,14.8125,-16.75,-0.3193359,-0.001464844,-1.091797,0.04492188,-0.009277344,1
805,13,15.25,-15.9375,-0.3271484,0.001953125,-1.114746,0.04248047,-0.0078125,0.9868164
809,13.9375,15.375,-15.0625,-0.3349609,-0.001464844,-1.129883,0.04248047,-0.0078125,0.9868164
813,14.6875,16.5,-14.25,-0.3466797,-0.009277344,-1.129883,0.04150391,-0.005371094,0.9790039
817,16.3125,18.4375,-13.375,-0.3466797,-0.02099609,-1.145508,0.04150391,-0.002441406,0.9667969
821,18.1875,20.625,-11.3125,-0.3466797,-0.02490234,-1.156738,0.04150391,-0.002441406,0.9667969
825,19.25,23.0625,-9.5625,-0.3466797,-0.02880859,-1.183594,0.04150391,0.001953125,0.9560547
829,18.875,24.375,-8,-0.3505859,-0.02880859,-1.210449,0.04150391,0.004882813,0.9443359
833,18.875,24.25,-6.25,-0.3505859,-0.04052734,-1.237305,0.04150391,0.004882813,0.9443359
837,19,23.3125,-4.0625,-0.3427734,-0.03662109,-1.237305,0.04248047,0.008789063,0.9335938
841,19.0625,22.375,-2,-0.3349609,-0.04443359,-1.245117,0.04150391,0.01123047,0.9189453
845,18.6875,21.4375,-0.0625,-0.3115234,-0.04052734,-1.248535,0.04150391,0.01123047,0.9189453
849,18.3125,20.875,1.0625,-0.3037109,-0.02880859,-1.260254,0.04394531,0.01513672,0.9082031
853,18.125,20.9375,1.5,-0.2802734,-0.02880859,-1.248535,0.04492188,0.01953125,0.8920898
857,17.9375,21.625,1,-0.2763672,-0.01708984,-1.252441,0.04492188,0.01953125,0.8920898
861,17.75,23.5,0,-0.2685547,-0.01318359,-1.248535,0.04785156,0.02441406,0.8745117
865,17.25,25.8125,-1.6875,-0.2646484,-0.01318359,-1.248535,0.04785156,0.02734375,0.8613281
869,16.4375,28.5625,-3.625,-0.2724609,-0.02099609,-1.26416,0.04785156,0.02734375,0.8613281
873,15.375,31.5625,-5.25,-0.2919922,-0.03662109,-1.283203,0.04785156,0.03271484,0.84375
877,14.875,34.5,-6.125,-0.3193359,-0.05224609,-1.291016,0.05029297,0.03369141,0.8305664
881,13.8125,37.1875,-6.0625,-0.3388672,-0.06396484,-1.321289,0.05029297,0.03369141,0.8305664
886,4.5625,52.125,0.625,-0.4013672,-0.1108398,-1.359863,0.05517578,0.04980469,0.7705078
890,3.0625,54.75,2.4375,-0.3818359,-0.09912109,-1.352051,0.05761719,0.05517578,0.7568359
894,1.625,56.875,4.0625,-0.3544922,-0.08740234,-1.336914,0.05761719,0.05761719,0.7436523
898,0.4375,59.25,5.5,-0.3193359,-0.07958984,-1.310059,0.05761719,0.05761719,0.7436523
902,0.625,60.875,6.375,-0.2841797,-0.07177734,-1.271484,0.05859375,0.05908203,0.7329102
906,0.8125,62.5625,6.9375,-0.237793,-0.06787109,-1.237305,0.05859375,0.06298828,0.7197266
910,0.9375,63.625,6.75,-0.206543,-0.05615234,-1.225586,0.05859375,0.06298828,0.7197266
914,1.25,63.9375,6.4375,-0.1713867,-0.06005859,-1.191406,0.0625,0.06445313,0.7075195
918,1.1875,64.125,6.4375,-0.1479492,-0.05615234,-1.191406,0.05859375,0.06591797,0.6958008
922,1.5625,64.625,5.5,-0.1206055,-0.04443359,-1.175781,0.05859375,0.06591797,0.6958008
926,1.5,66.4375,4.4375,-0.1088867,-0.03662109,-1.168457,0.06152344,0.06835938,0.6875
930,0.5625,68.75,3.1875,-0.1010742,-0.04052734,-1.168457,0.06005859,0.07226563,0.6757813
934,-0.5625,70.625,2.375,-0.09716797,-0.04443359,-1.179688,0.06005859,0.07226563,0.6757813
938,-2.4375,71.5,2.0625,-0.1088867,-0.04833984,-1.191406,0.06005859,0.07226563,0.6660156
942,-3.4375,71.25,2.5625,-0.1206055,-0.06005859,-1.214355,0.06005859,0.07519531,0.659668
946,-4.3125,70.6875,3.875,-0.1323242,-0.07177734,-1.214355,0.06005859,0.07519531,0.659668
950,-5.5,70,5.5625,-0.1362305,-0.07958984,-1.206543,0.05859375,0.07617188,0.6513672
954,-6.5625,69.4375,6.75,-0.1401367,-0.07958984,-1.195313,0.05761719,0.07763672,0.6435547
958,-7.375,68.8125,8.375,-0.144043,-0.08740234,-1.206543,0.05761719,0.07763672,0.6435547
962,-8.1875,68.8125,9.4375,-0.144043,-0.07958984,-1.1875,0.05615234,0.07763672,0.6396484
966,-8.8125,68.75,10.5,-0.1323242,-0.07177734,-1.175781,0.05517578,0.07763672,0.6342773
970,-8.875,69.4375,11.0625,-0.1166992,-0.07958984,-1.172363,0.05517578,0.07763672,0.6342773
974,-8.0625,70.5625,11.1875,-0.1010742,-0.07958984,-1.149414,0.05517578,0.07763672,0.6259766
978,-7.1875,72.5,10.8125,-0.08544922,-0.08349609,-1.141602,0.05273438,0.08300781,0.6235352
982,-6.3125,74.1875,10,-0.06591797,-0.09130859,-1.129883,0.05273438,0.08300781,0.6235352
986,-5.3125,76.0625,8.5,-0.04638672,-0.09130859,-1.118652,0.05371094,0.08007813,0.6196289
990,-3.9375,77.9375,6.5625,-0.03076172,-0.09912109,-1.114746,0.05273438,0.08154297,0.6181641
995,-2.1875,87.875,-9.0625,0.046875,-0.1420898,-1.164551,0.04394531,0.08154297,0.605957
999,-4.0625,88.375,-11,0.04296875,-0.1420898,-1.172363,0.04394531,0.08154297,0.605957
1003,-6.25,88.5,-13,0.04296875,-0.1342773,-1.183594,0.04394531,0.08154297,0.6020508
1007,-8.5,88.1875,-14,0.02734375,-0.1303711,-1.183594,0.04003906,0.08447266,0.6035156
1011,-9.5,87.1875,-15.4375,0.0234375,-0.1264648,-1.183594,0.04003906,0.08447266,0.6035156
1015,-8.8125,84.4375,-17.1875,0.015625,-0.1147461,-1.191406,0.03662109,0.08300781,0.6005859
1019,-12.625,84.625,-15.3125,0.0078125,-0.1420898,-1.191406,0.03662109,0.08300781,0.5966797
1023,-18.5,83.4375,-13.125,0,-0.1303711,-1.179688,0.03662109,0.08300781,0.5966797
1027,-21.625,82.9375,-12.75,0.0078125,-0.09521484,-1.137695,0.03369141,0.08300781,0.5966797
1031,-21.8125,83.1875,-13.625,-0.01904297,-0.07177734,-1.114746,0.03271484,0.08154297,0.5966797
1035,-20.4375,84,-14.25,-0.02685547,-0.07568359,-1.126465,0.03271484,0.08154297,0.5966797
1039,-19.4375,84.1875,-13.5,-0.02685547,-0.08349609,-1.122559,0.02880859,0.08300781,0.5952148
1043,-19.4375,83.5,-11.5625,-0.03076172,-0.07568359,-1.133789,0.03027344,0.07910156,0.5942383
1047,-20.125,82.3125,-10.0625,-0.04248047,-0.07177734,-1.141602,0.03027344,0.07910156,0.5942383
1051,-20.25,81.9375,-8.5,-0.05029297,-0.07177734,-1.156738,0.02392578,0.08154297,0.5942383
1055,-20.3125,82,-7,-0.05810547,-0.07568359,-1.156738,0.02539063,0.08007813,0.5927734
1059,-20.75,82.5,-5.75,-0.05419922,-0.07177734,-1.152832,0.02539063,0.08007813,0.5927734
1063,-22.125,82.1875,-4.25,-0.05419922,-0.06787109,-1.160645,0.02294922,0.07910156,0.5913086
1067,-24.0625,81.8125,-2.6875,-0.06201172,-0.07177734,-1.172363,0.01904297,0.07910156,0.5942383
1071,-25.8125,80.8125,-0.8125,-0.06982422,-0.07958984,-1.179688,0.01904297,0.07910156,0.5942383
1075,-27.6875,78.9375,1.75,-0.06201172,-0.07568359,-1.172363,0.01904297,0.07910156,0.5927734
1079,-29.4375,76.5625,3.875,-0.06982422,-0.07958984,-1.179688,0.01757813,0.07910156,0.5913086
1083,-30.5625,74.75,6,-0.06201172,-0.07177734,-1.172363,0.01757813,0.07910156,0.5913086
1087,-31.8125,74.1875,7.3125,-0.05419922,-0.04833984,-1.141602,0.01660156,0.07617188,0.5898438
1091,-33.4375,73.9375,8.5,-0.05029297,-0.03271484,-1.129883,0.01416016,0.07519531,0.5898438
1095,-34.9375,74.0625,9.25,-0.03857422,-0.02099609,-1.118652,0.01416016,0.07519531,0.5898438
1099,-35.875,74.3125,9.875,-0.02685547,-0.01708984,-1.095703,0.01269531,0.07373047,0.5913086
1104,-37.5625,74.4375,15.25,0.0078125,0.02539063,-1.007324,0.005371094,0.06835938,0.5898438
1108,-35,73.375,15.8125,0.01953125,0.03710938,-0.9921875,0.00390625,0.06445313,0.5942383
1112,-24.125,66.25,10.1875,0.046875,0.1269531,-1.026855,0.00390625,0.06445313,0.5942383
1116,-18.5625,71.25,9.375,0.05859375,0.02148438,-0.9042969,0.001464844,0.06591797,0.5913086
1120,-20.25,77.875,11.75,0.05078125,-0.04052734,-0.8925781,0.001464844,0.06298828,0.5927734
1124,-20.625,82.5625,11.75,0.0546875,-0.02880859,-0.9116211,0.001464844,0.06298828,0.5927734
1128,-16.0625,84.3125,9.625,0.08935547,0.005859375,-0.9462891,0.0004882813,0.06152344,0.5942383
1132,-10.9375,85.125,7.5625,0.112793,0.01757813,-0.9575195,-0.001464844,0.06152344,0.5942383
1136,-8.25,87.3125,5.625,0.1206055,0.01367188,-0.965332,-0.001464844,0.06152344,0.5942383
1140,-6.625,89.5,3.1875,0.128418,-0.001464844,-0.984375,-0.001464844,0.06152344,0.5913086
1144,-5.25,90.9375,0.125,0.128418,0.001953125,-1.01123,-0.006835938,0.06054688,0.5913086
1148,-2.9375,89.4375,-4.625,0.1479492,0.01367188,-1.01123,-0.006835938,0.06054688,0.5913086
1152,-5.6875,91.3125,-4,0.128418,-0.04833984,-1.003906,-0.009277344,0.06054688,0.5898438
1156,-11.125,91.25,-1.6875,0.112793,-0.07568359,-1.019043,-0.01025391,0.06054688,0.5942383
1160,-14.6875,89.9375,0.1875,0.1088867,-0.06396484,-1.007324,-0.01025391,0.06054688,0.5942383
1164,-17.5625,87.3125,2.5625,0.1010742,-0.06787109,-1.003906,-0.01269531,0.06054688,0.5927734
1168,-20.8125,84.5625,6.125,0.09716797,-0.06005859,-0.9921875,-0.01660156,0.05908203,0.5898438
1172,-24.25,81.6875,9.75,0.09716797,-0.04052734,-0.980957,-0.01660156,0.05908203,0.5898438
1176,-27.375,78.75,12.4375,0.09326172,-0.02099609,-0.9575195,-0.01660156,0.05761719,0.5927734
1180,-29.875,76.0625,15,0.1010742,-0.01708984,-0.9384766,-0.01660156,0.05664063,0.5942383
1184,-31.5625,72.9375,17.875,0.112793,-0.009277344,-0.9082031,-0.01660156,0.05664063,0.5942383
1188,-32.1875,69.5,20.4375,0.1245117,-0.01318359,-0.8657227,-0.02294922,0.05517578,0.5942383
1192,-32.6875,66.375,23.4375,0.1479492,-0.009277344,-0.831543,-0.02294922,0.05224609,0.5927734
1196,-33,63.6875,25.6875,0.1713867,0.01367188,-0.8007813,-0.02294922,0.05224609,0.5927734
1200,-29.375,58.25,24.125,0.206543,0.08398438,-0.777832,-0.02392578,0.05126953,0.5966797
1204,-27.625,58.5,24.0625,0.2260742,0.04492188,-0.7089844,-0.02539063,0.04980469,0.5942383
1208,-28.6875,59.625,25.5625,0.2338867,0.02148438,-0.6669922,-0.02539063,0.04980469,0.5942383
1213,-17.125,55.125,20.625,0.3198242,0.05664063,-0.5825195,-0.03173828,0.04736328,0.5927734
1217,-15.5,53,18.5625,0.300293,0.03710938,-0.574707,-0.03173828,0.04443359,0.5952148
1221,-14.125,51.6875,17,0.2963867,0.04492188,-0.5478516,-0.03417969,0.04296875,0.5952148
1225,-12.6875,50.1875,15.8125,0.2924805,0.05273438,-0.5595703,-0.03417969,0.04296875,0.5952148
1229,-9.8125,46.1875,14.375,0.2612305,0.06054688,-0.5976563,-0.03417969,0.04443359,0.5942383
1233,-5.75,41.6875,12.6875,0.269043,0.07226563,-0.5786133,-0.03417969,0.04443359,0.5981445
1237,-6.4375,40.1875,15.0625,0.2416992,0.01757813,-0.5712891,-0.03417969,0.04443359,0.5981445
1241,-9.75,38,18.375,0.2338867,0.005859375,-0.5712891,-0.03759766,0.04296875,0.5966797
1245,-11.8125,34.5625,21,0.2416992,0.02148438,-0.5712891,-0.03759766,0.04296875,0.5927734
1249,-11.9375,30.8125,23.0625,0.2456055,0.04101563,-0.5634766,-0.03759766,0.04296875,0.5927734
1253,-11.4375,27.125,24.8125,0.2416992,0.03710938,-0.5556641,-0.03662109,0.04199219,0.5952148
1257,-11.125,23.9375,27.125,0.2495117,0.03710938,-0.5478516,-0.04052734,0.04052734,0.5942383
1261,-10.875,20.125,28.8125,0.253418,0.04101563,-0.5405273,-0.04052734,0.04052734,0.5942383
1265,-10.25,16.625,29.6875,0.253418,0.04101563,-0.5405273,-0.0390625,0.04199219,0.5952148
1269,-10.75,12.5625,31.125,0.2651367,0.03320313,-0.5366211,-0.03759766,0.03808594,0.5942383
1273,-11.8125,8.4375,32.9375,0.2807617,0.02539063,-0.5214844,-0.03759766,0.03808594,0.5942383
1277,-12.6875,3.625,34.3125,0.284668,0.02929688,-0.5214844,-0.0390625,0.04052734,0.5927734
1281,-13.125,-0.1875,35.3125,0.2924805,0.03320313,-0.4790039,-0.04052734,0.0390625,0.5942383
1285,-10.125,-7.25,33.125,0.2963867,0.08398438,-0.4907227,-0.04052734,0.0390625,0.5942383
1289,-8.5,-10.3125,32.875,0.2963867,0.03710938,-0.4331055,-0.0390625,0.03662109,0.5942383
1293,-10.25,-12.5,34,0.2885742,0.009765625,-0.40625,-0.03759766,0.03808594,0.5952148
1297,-11.3125,-14.9375,34.625,0.284668,0.01757813,-0.40625,-0.03759766,0.03808594,0.5952148
1301,-9.0625,-17.8125,33.6875,0.2885742,0.04101563,-0.3911133,-0.0390625,0.03662109,0.5942383
1305,-6.25,-20.3125,32.5,0.2768555,0.04101563,-0.3793945,-0.03515625,0.03662109,0.5942383
1309,-3.1875,-22.6875,30.75,0.2885742,0.06054688,-0.3759766,-0.03515625,0.03662109,0.5942383
1313,-1.5,-25.9375,29.875,0.2807617,0.02929688,-0.3911133,-0.03515625,0.03662109,0.5966797
1317,-0.5,-26.625,29.8125,0.2807617,0.005859375,-0.3564453,-0.03417969,0.03515625,0.5927734
1322,15.75,-23.75,15.25,0.2456055,-0.02490234,-0.440918,-0.03173828,0.03662109,0.5942383
1326,16.6875,-24.8125,14.5,0.2495117,-0.04052734,-0.4560547,-0.03173828,0.03662109,0.5942383
1330,17.5625,-27.25,13.25,0.2456055,-0.04052734,-0.4716797,-0.03027344,0.03808594,0.5942383
1334,20.6875,-31.5,9.5,0.253418,-0.005371094,-0.4868164,-0.03027344,0.03808594,0.5942383
1338,19.25,-32.0625,9.8125,0.2456055,-0.06787109,-0.4638672,-0.03027344,0.03808594,0.5942383
1342,16.1875,-33.5625,11,0.2416992,-0.09912109,-0.4716797,-0.02685547,0.0390625,0.5927734
1346,13.25,-37.4375,12.1875,0.237793,-0.1069336,-0.4946289,-0.02685547,0.03808594,0.5927734
1350,10.75,-43.125,13.5,0.237793,-0.1030273,-0.5136719,-0.02685547,0.03808594,0.5927734
1354,7.8125,-50.25,14.6875,0.2495117,-0.1030273,-0.5175781,-0.02685547,0.0390625,0.5942383
1358,2.6875,-58.4375,16.3125,0.2495117,-0.09521484,-0.5288086,-0.02392578,0.0390625,0.5913086
1362,-2.5625,-66.6875,17.75,0.2416992,-0.09130859,-0.5214844,-0.02392578,0.0390625,0.5913086
1366,-7.75,-74.75,19.375,0.2260742,-0.08740234,-0.5019531,-0.02294922,0.0390625,0.5927734
1370,-12.6875,-83.5,20.875,0.2260742,-0.07958984,-0.4946289,-0.01904297,0.0390625,0.5927734
1374,-17.125,-92.75,22.875,0.206543,-0.05224609,-0.4677734,-0.01904297,0.0390625,0.5927734
1378,-20.75,-98.0625,24.5625,0.1987305,-0.03662109,-0.440918,-0.01660156,0.03808594,0.5942383
1382,-23.125,-105.125,26.125,0.1870117,-0.01708984,-0.4140625,-0.01269531,0.03808594,0.5942383
1386,-24.375,-109.9375,27.5,0.1713867,-0.001464844,-0.3759766,-0.01269531,0.03808594,0.5942383
1390,-23.6875,-112.9375,28.0625,0.1557617,0.02929688,-0.3491211,-0.01025391,0.03662109,0.5913086
1394,-21.0625,-113.5625,26.9375,0.1479492,0.04492188,-0.3334961,-0.006835938,0.03662109,0.5913086
1398,-14.75,-113.1875,25,0.1479492,0.05273438,-0.3183594,-0.006835938,0.03662109,0.5913086
1402,-7.25,-111.5,22.75,0.159668,0.05273438,-0.3334961,-0.002929688,0.03515625,0.5898438
1406,-0.25,-109.4375,19.9375,0.1713867,0.05664063,-0.3603516,-0.0004882813,0.03369141,0.5913086
1410,4.5625,-107.0625,16.6875,0.1713867,0.05273438,-0.387207,-0.0004882813,0.03369141,0.5913086
1414,8,-103.875,12.5625,0.1791992,0.04882813,-0.402832,0.002929688,0.03515625,0.5913086
1418,11.5,-100.8125,8,0.1791992,0.02929688,-0.4448242,0.006347656,0.03515625,0.5898438
1422,14.75,-98.25,3.9375,0.1791992,0.009765625,-0.4868164,0.006347656,0.03515625,0.5898438
1426,17.8125,-96.25,0.25,0.1713867,-0.009277344,-0.5366211,0.01025391,0.03662109,0.5888672
1431,6.625,-108.25,-14.75,0.0625,-0.1108398,-0.7548828,0.02001953,0.03808594,0.5888672
1435,4,-117,-13.5625,0.046875,-0.1225586,-0.7661133,0.02539063,0.0390625,0.5888672
1439,-0.25,-126.5625,-11.8125,0.03125,-0.1147461,-0.7700195,0.02539063,0.0390625,0.5888672
1443,-5.5625,-134.25,-10.6875,0.01953125,-0.08740234,-0.7661133,0.02636719,0.04052734,0.5888672
1447,-10.875,-141.25,-10.0625,0.015625,-0.06396484,-0.7587891,0.03125,0.0390625,0.5874023
1451,-14.25,-146.625,-9.125,0.0078125,-0.03271484,-0.7241211,0.03125,0.0390625,0.5874023
1455,-14.875,-150.625,-8.75,-0.01123047,-0.009277344,-0.7050781,0.03662109,0.04052734,0.5874023
1459,-12.5,-152.125,-8.5625,-0.01904297,0.01367188,-0.7050781,0.04003906,0.0390625,0.5834961
1463,-10.5625,-151.3125,-7.6875,-0.01904297,0.03710938,-0.6933594,0.04003906,0.0390625,0.5834961
1467,-6.125,-147.4375,-9.8125,-0.05419922,0.08007813,-0.6933594,0.04492188,0.04052734,0.5834961
1471,0,-143.1875,-12.125,-0.06982422,0.09960938,-0.7280273,0.04785156,0.0390625,0.5805664
1475,5.625,-139.3125,-13.6875,-0.1049805,0.07226563,-0.7739258,0.04785156,0.0390625,0.5805664
1479,11.0625,-134.8125,-14.8125,-0.1362305,0.07226563,-0.8046875,0.05273438,0.0390625,0.5820313
1483,15.4375,-130.4375,-16.125,-0.1713867,0.05273438,-0.8925781,0.05615234,0.0390625,0.5805664
1487,18.6875,-125.9375,-17.625,-0.190918,0.005859375,-0.965332,0.05615234,0.0390625,0.5805664
1491,21.1875,-119.9375,-19.625,-0.2299805,-0.02880859,-1.049805,0.06152344,0.04296875,0.5805664
1495,21.9375,-114.4375,-21.3125,-0.2568359,-0.07177734,-1.152832,0.06396484,0.04199219,0.5805664
1499,20.625,-110.125,-22.5,-0.2763672,-0.1108398,-1.26416,0.06396484,0.04199219,0.5805664
1503,16.9375,-107.3125,-24,-0.2919922,-0.1459961,-1.352051,0.06738281,0.04296875,0.5805664
1507,11.4375,-106,-26.0625,-0.3115234,-0.1655273,-1.420898,0.07128906,0.04443359,0.578125
1511,4.8125,-105.125,-28.6875,-0.3271484,-0.1967773,-1.482422,0.07128906,0.04443359,0.578125
1515,-3.875,-105.125,-30.375,-0.3310547,-0.2241211,-1.539551,0.07617188,0.04443359,0.5795898
1519,-12.5,-106.125,-31.0625,-0.3349609,-0.2319336,-1.589355,0.07861328,0.04443359,0.5795898
1523,-21.1875,-107.6875,-31.0625,-0.3544922,-0.2163086,-1.597168,0.07861328,0.04443359,0.5795898
1527,-30.3125,-109.4375,-30.6875,-0.3544922,-0.1811523,-1.582031,0.08251953,0.04443359,0.578125
1531,-39.1875,-111.875,-30,-0.3740234,-0.1303711,-1.5625,0.08642578,0.04443359,0.578125
1535,-47.4375,-114.875,-28.3125,-0.3857422,-0.08740234,-1.524414,0.08642578,0.04443359,0.578125
1540,-39.625,-116.25,-5.5625,-0.4052734,0.1933594,-1.210449,0.1035156,0.03662109,0.5727539
1544,-27.625,-112.8125,-2.5625,-0.3974609,0.2207031,-1.191406,0.1098633,0.03515625,0.5742188
1548,-12.6875,-107.1875,-0.5,-0.3779297,0.2324219,-1.168457,0.1147461,0.03369141,0.5727539
1552,2.125,-99.875,0.3125,-0.3427734,0.2089844,-1.152832,0.1147461,0.03369141,0.5727539
1556,14.8125,-93.1875,0.8125,-0.2998047,0.1894531,-1.191406,0.1196289,0.03271484,0.5698242
1560,23.625,-84.8125,0.1875,-0.2456055,0.1699219,-1.218262,0.1225586,0.03271484,0.5688477
1564,28.8125,-77.25,-2.5625,-0.1987305,0.1542969,-1.26416,0.1225586,0.03271484,0.5688477
1568,32.6875,-70.5625,-6.6875,-0.175293,0.1035156,-1.291016,0.128418,0.03125,0.5673828
1572,37.625,-63.8125,-10.0625,-0.1713867,0.04882813,-1.302246,0.1298828,0.03271484,0.5644531
1576,43.25,-57.375,-11.875,-0.1557617,0.005859375,-1.325195,0.1298828,0.03271484,0.5644531
1580,46.5,-52.6875,-12.3125,-0.1479492,-0.02099609,-1.394043,0.1347656,0.03125,0.5634766
1584,44.1875,-50.5625,-13.5625,-0.112793,-0.03271484,-1.466797,0.1396484,0.03125,0.5634766
1588,37.25,-48.4375,-18.8125,-0.09716797,-0.009277344,-1.509277,0.1396484,0.03125,0.5634766
1592,33.5625,-51.75,-26.75,-0.08154297,0.04492188,-1.536133,0.1420898,0.03369141,0.5605469
1596,25.375,-50.6875,-24.6875,-0.1049805,-0.08349609,-1.509277,0.1459961,0.03515625,0.5605469
1600,15.25,-47.5625,-22.5,-0.1362305,-0.07958984,-1.443848,0.1459961,0.03515625,0.5605469
1604,9.5,-48.6875,-19.4375,-0.1518555,-0.07568359,-1.455566,0.1499023,0.03515625,0.5581055
1608,8.375,-54.75,-14.75,-0.1401367,-0.04052734,-1.45166,0.1533203,0.03369141,0.5566406
1612,7.375,-61.6875,-9.125,-0.128418,-0.01708984,-1.439941,0.1533203,0.03369141,0.5566406
1616,3.25,-68.75,-3.125,-0.128418,0.02539063,-1.428711,0.1557617,0.03515625,0.5527344
1620,-2.3125,-75.25,2.1875,-0.1166992,0.06054688,-1.397949,0.159668,0.03271484,0.5498047
1624,-6.4375,-80.5,7.125,-0.1010742,0.09179688,-1.359863,0.159668,0.03271484,0.5498047
1628,-9.1875,-83.1875,10.6875,-0.09716797,0.1347656,-1.302246,0.1645508,0.03271484,0.5488281
1632,-9.125,-84.0625,13.0625,-0.08935547,0.1582031,-1.248535,0.1669922,0.03271484,0.5444336
1636,-7.3125,-83.875,14.25,-0.09716797,0.1738281,-1.225586,0.1669922,0.03271484,0.5444336
1640,-3.125,-81.875,14.8125,-0.09326172,0.1738281,-1.206543,0.1733398,0.02978516,0.5405273
1644,0.875,-80.1875,16.8125,-0.08544922,0.1269531,-1.245117,0.1748047,0.02734375,0.5380859
1649,33.0625,-35.375,-4.125,-0.144043,0.03710938,-1.390625,0.1884766,0.02734375,0.5258789
1653,34.5625,-32.375,-5.375,-0.1557617,-0.001464844,-1.470703,0.1884766,0.02734375,0.5258789
1657,34.875,-29.9375,-7.125,-0.1713867,-0.005371094,-1.474609,0.1894531,0.02880859,0.5219727
1661,35,-26,-8.6875,-0.1987305,-0.02880859,-1.520508,0.1918945,0.02880859,0.5219727
1665,34.8125,-21.8125,-9.4375,-0.2026367,-0.04833984,-1.566406,0.1918945,0.02880859,0.5219727
1669,34.4375,-17.5625,-8.75,-0.1948242,-0.06787109,-1.612305,0.1918945,0.02880859,0.5205078
1673,32.5,-13.25,-5.9375,-0.2456055,-0.05615234,-1.63916,0.1933594,0.02978516,0.5180664
1677,28.4375,-12.0625,-7.625,-0.2568359,-0.03271484,-1.696777,0.1933594,0.02978516,0.5180664
1681,23.125,-13.0625,-8.0625,-0.2646484,-0.04443359,-1.727539,0.1948242,0.02978516,0.5151367
1685,18.1875,-14.75,-5.25,-0.2568359,-0.06396484,-1.723633,0.1958008,0.02978516,0.5136719
1689,14.875,-16.75,-0.875,-0.2495117,-0.06005859,-1.727539,0.1958008,0.02978516,0.5136719
1693,11.4375,-19.375,2.875,-0.2416992,-0.03662109,-1.727539,0.1972656,0.02978516,0.5126953
1697,7.875,-20.0625,4.4375,-0.222168,0.001953125,-1.677734,0.1972656,0.03125,0.5112305
1701,5,-17.8125,5,-0.222168,0.03710938,-1.63916,0.1972656,0.03125,0.5112305
1705,4.375,-14.5625,4.5625,-0.2182617,0.05664063,-1.612305,0.1958008,0.02978516,0.5151367
1709,6.75,-10.875,4.625,-0.2299805,0.07226563,-1.620117,0.1972656,0.02978516,0.5112305
1713,10.5625,-9.375,4.5,-0.237793,0.09179688,-1.635254,0.1972656,0.02978516,0.5112305
1717,12.3125,-4.6875,4.375,-0.2182617,0.1074219,-1.608398,0.1982422,0.02978516,0.5097656
1721,8.8125,0.5625,5,-0.2299805,0.1230469,-1.608398,0.1972656,0.02978516,0.5112305
1725,5.375,4.875,4.8125,-0.2416992,0.1347656,-1.624023,0.1972656,0.02978516,0.5112305
1729,8.25,8.125,5.1875,-0.2685547,0.1035156,-1.601074,0.1972656,0.02978516,0.5126953
1733,15.5,12.0625,7.0625,-0.2802734,0.08007813,-1.597168,0.1972656,0.02880859,0.5112305
1737,22.5625,16.6875,9.4375,-0.2958984,0.07226563,-1.616211,0.1972656,0.02880859,0.5112305
1741,27.3125,21.4375,12.9375,-0.3154297,0.05664063,-1.662109,0.1948242,0.02978516,0.5126953
1745,30.1875,24.6875,16.125,-0.3505859,0.04101563,-1.723633,0.1918945,0.03125,0.5151367
1749,31.8125,26.8125,17.5,-0.3662109,-0.001464844,-1.800293,0.1918945,0.03125,0.5151367
1753,31.3125,29.375,19.8125,-0.3779297,-0.02880859,-1.849609,0.1918945,0.02880859,0.5180664
1758,5.5625,43.5625,37.125,-0.3505859,-0.09912109,-1.999023,0.1821289,0.03271484,0.5273438
1762,2.125,50.0625,36.625,-0.3310547,-0.09130859,-1.964844,0.1796875,0.03369141,0.5288086
1766,-0.0625,58.125,34.9375,-0.3076172,-0.06005859,-1.930176,0.1796875,0.03369141,0.5288086
1770,-1.625,66.875,32.125,-0.2998047,-0.03662109,-1.911133,0.1772461,0.03271484,0.5327148
1774,-3.25,74.875,29.625,-0.2919922,-0.02099609,-1.899414,0.1708984,0.03369141,0.5351563
1778,-4.9375,82.4375,27,-0.2880859,-0.01708984,-1.880371,0.1708984,0.03369141,0.5351563
1782,-6.375,88.8125,24.1875,-0.2880859,-0.01318359,-1.861328,0.1660156,0.03662109,0.5405273
1786,-6.625,95.5625,21.5,-0.3115234,-0.02099609,-1.82666,0.1635742,0.03808594,0.5419922
1790,-5.9375,101.625,19.5625,-0.3193359,-0.02490234,-1.81543,0.1635742,0.03808594,0.5419922
1794,-4.875,107.1875,18.1875,-0.3349609,-0.02490234,-1.81543,0.1557617,0.03662109,0.5458984
1798,-3.125,112.9375,16.625,-0.3388672,-0.01318359,-1.800293,0.1523438,0.04052734,0.5473633
1802,-0.75,119,14.625,-0.3427734,-0.01708984,-1.784668,0.1523438,0.04052734,0.5473633
1806,0.75,126.0625,13.125,-0.3583984,-0.02880859,-1.757813,0.1445313,0.04052734,0.5498047
1810,1,133.375,12.0625,-0.3662109,-0.04833984,-1.757813,0.1396484,0.04199219,0.5541992
1814,1.75,139.3125,11.25,-0.3896484,-0.06787109,-1.765625,0.1396484,0.04199219,0.5541992
1818,1.625,144,11.625,-0.4130859,-0.07958984,-1.761719,0.1337891,0.04443359,0.5566406
1822,0.125,147.6875,13.5,-0.4482422,-0.1030273,-1.757813,0.1274414,0.04443359,0.559082
1826,-1.8125,150.125,16.375,-0.4716797,-0.1264648,-1.773438,0.1274414,0.04443359,0.559082
1830,-3.8125,150.75,19.25,-0.4794922,-0.1459961,-1.765625,0.1210938,0.04296875,0.5620117
1834,-6.625,150.9375,22.75,-0.4755859,-0.1694336,-1.742676,0.1147461,0.04736328,0.565918
1838,-9.875,151.125,25.625,-0.4794922,-0.1694336,-1.708008,0.1147461,0.04736328,0.565918
1842,-12.4375,152.25,27.25,-0.4677734,-0.1577148,-1.666016,0.1088867,0.04443359,0.5644531
1846,-13.6875,153.875,27.25,-0.4521484,-0.1577148,-1.60498,0.1035156,0.04736328,0.5688477
1850,-15.625,154.8125,27.6875,-0.4365234,-0.1733398,-1.570313,0.1035156,0.04736328,0.5688477
1854,-17.6875,156.3125,28.125,-0.4130859,-0.1850586,-1.524414,0.09765625,0.04736328,0.5688477
1858,-20.3125,157.5,27.8125,-0.4013672,-0.1850586,-1.497559,0.09228516,0.04443359,0.5688477
1862,-22.25,158.625,27.5,-0.3779297,-0.1928711,-1.470703,0.09228516,0.04443359,0.5688477
1867,-43.4375,170.9375,13.9375,-0.3193359,-0.1420898,-1.202637,0.06982422,0.0390625,0.5751953
1871,-44.4375,172.3125,12.1875,-0.3271484,-0.1459961,-1.152832,0.06640625,0.03808594,0.578125
1875,-45.0625,172.3125,10.625,-0.3232422,-0.1303711,-1.114746,0.06152344,0.03662109,0.578125
1879,-46.5625,171.4375,9.3125,-0.3232422,-0.1186523,-1.080078,0.06152344,0.03662109,0.578125
1883,-48.5,170.4375,8.75,-0.3310547,-0.1108398,-1.022949,0.05615234,0.03515625,0.5805664
1887,-50.625,169.625,8.75,-0.3271484,-0.09521484,-0.9501953,0.05029297,0.03369141,0.5805664
1891,-51.875,168.0625,9.6875,-0.3232422,-0.08740234,-0.9003906,0.05029297,0.03369141,0.5805664
1895,-52.6875,166.5625,10.75,-0.3193359,-0.07177734,-0.8466797,0.04638672,0.02978516,0.5834961
1899,-54,164.4375,11.875,-0.2998047,-0.06396484,-0.7817383,0.04003906,0.02978516,0.5820313
1903,-55.25,162.125,13.25,-0.2802734,-0.06005859,-0.7280273,0.04003906,0.02978516,0.5820313
1907,-55,159.9375,14.4375,-0.2685547,-0.06396484,-0.6860352,0.03662109,0.02734375,0.5859375
1911,-53.875,157.6875,15.5,-0.2456055,-0.06787109,-0.6206055,0.02880859,0.02441406,0.5859375
1915,-52.6875,154.6875,15.875,-0.2182617,-0.06787109,-0.5976563,0.02880859,0.02441406,0.5859375
1919,-52.0625,150.5625,17,-0.1948242,-0.06787109,-0.5786133,0.02539063,0.02197266,0.5874023
1923,-51.3125,146.3125,17.0625,-0.159668,-0.06396484,-0.5327148,0.02148438,0.01953125,0.5874023
1927,-50.875,142.3125,16.75,-0.1206055,-0.06005859,-0.5097656,0.02148438,0.01953125,0.5874023
1931,-50.0625,138.5,15.6875,-0.08935547,-0.05615234,-0.4829102,0.01757813,0.01806641,0.5898438
1935,-49.25,135.5,14.0625,-0.05419922,-0.04833984,-0.4560547,0.01513672,0.01513672,0.5898438
1939,-48.8125,132.4375,11.8125,-0.03076172,-0.04052734,-0.4257813,0.01513672,0.01513672,0.5898438
1943,-48.3125,129.125,9.5625,-0.01904297,-0.02880859,-0.3950195,0.01025391,0.01416016,0.5898438
1947,-46.8125,125.125,7.875,-0.01123047,-0.02099609,-0.3911133,0.006347656,0.01269531,0.5898438
1951,-45.75,120.75,6.5,-0.007324219,-0.009277344,-0.3720703,0.006347656,0.01269531,0.5898438
1955,-45.6875,116.5,5.5625,0,-0.005371094,-0.3681641,0.00390625,0.01025391,0.5898438
1959,-46.625,112.5625,4.625,0,0.005859375,-0.3564453,0.0004882813,0.007324219,0.5913086
1963,-47.875,108.5625,3.9375,-0.01123047,0.009765625,-0.3491211,0.0004882813,0.007324219,0.5913086
1967,-48.875,104.4375,3.5625,-0.01904297,0.01757813,-0.3300781,-0.001464844,0.007324219,0.5913086
1971,-48.875,100.5,3.375,-0.02685547,0.02539063,-0.3071289,-0.006835938,0.004882813,0.5913086
1976,-49.1875,74.6875,7.625,-0.03076172,0.06054688,-0.1650391,-0.015625,-0.002441406,0.5913086
1980,-46.5,70.9375,9.0625,-0.03076172,0.07617188,-0.1499023,-0.015625,-0.002441406,0.5913086
1984,-44.25,67.1875,10.375,-0.01513672,0.07617188,-0.1347656,-0.01660156,-0.00390625,0.5927734
1988,-41.25,63.8125,11.4375,-0.003417969,0.09570313,-0.1347656,-0.02050781,-0.005371094,0.5942383
1992,-38.5,60.4375,12.9375,0.01171875,0.1074219,-0.1118164,-0.02050781,-0.005371094,0.5942383
1996,-35.3125,57.4375,14.3125,0.03515625,0.1074219,-0.09619141,-0.02294922,-0.006835938,0.5927734
2000,-31.3125,54.875,14.75,0.06640625,0.1191406,-0.08496094,-0.02392578,-0.009277344,0.5927734
2004,-27.5625,52.875,14.8125,0.08935547,0.1191406,-0.06933594,-0.02392578,-0.009277344,0.5927734
2008,-23.25,50.8125,14.3125,0.1206055,0.1269531,-0.06591797,-0.02685547,-0.0078125,0.5927734
2012,-19.0625,49.25,13.375,0.1557617,0.1269531,-0.06591797,-0.02685547,-0.009277344,0.5913086
2016,-15.3125,46.6875,12.125,0.1831055,0.1191406,-0.06933594,-0.02685547,-0.009277344,0.5913086
2020,-12.4375,44.6875,10.75,0.206543,0.1230469,-0.06933594,-0.02929688,-0.01074219,0.5913086
2024,-11.1875,42.5625,9.625,0.2299805,0.1113281,-0.06933594,-0.03027344,-0.01074219,0.5942383
2028,-9.75,40.1875,8.9375,0.237793,0.1035156,-0.07324219,-0.03027344,-0.01074219,0.5942383
2032,-8.625,37,7.9375,0.2573242,0.08789063,-0.07714844,-0.03027344,-0.01074219,0.5942383
2036,-7.875,32.75,6.9375,0.253418,0.07617188,-0.09619141,-0.03173828,-0.01171875,0.5952148
2040,-7.75,26.9375,6.4375,0.2573242,0.06835938,-0.1152344,-0.03173828,-0.01171875,0.5952148
2044,-8.1875,21.3125,6.625,0.2612305,0.07226563,-0.1269531,-0.03417969,-0.01318359,0.5942383
2048,-8.5,14.4375,7.0625,0.2651367,0.07226563,-0.1381836,-0.03417969,-0.01318359,0.5942383
2052,-8.4375,8.1875,7.625,0.2651367,0.08007813,-0.1230469,-0.03417969,-0.01318359,0.5942383
2056,-8.875,1.8125,7.625,0.2612305,0.08007813,-0.1230469,-0.03271484,-0.01318359,0.5927734
2060,-8.5625,-4.1875,8.1875,0.2573242,0.08789063,-0.1152344,-0.03271484,-0.01318359,0.5913086
2064,-7.3125,-10.625,8.5625,0.2573242,0.09570313,-0.1040039,-0.03271484,-0.01318359,0.5913086
2068,-5.8125,-16.625,9.1875,0.2573242,0.1035156,-0.1040039,-0.03271484,-0.01464844,0.5927734
2072,-4.3125,-22.8125,9.9375,0.2573242,0.1113281,-0.09619141,-0.03271484,-0.01171875,0.5913086
2076,-2.625,-27.6875,10.8125,0.2573242,0.1269531,-0.09619141,-0.03271484,-0.01171875,0.5913086
2080,0.125,-31.9375,11.25,0.253418,0.1386719,-0.08105469,-0.03027344,-0.01318359,0.5927734
2085,24.625,-44.5,7.75,0.2768555,0.1425781,-0.1191406,-0.02685547,-0.01171875,0.5927734
2089,29.3125,-45.875,6.875,0.2729492,0.1308594,-0.1269531,-0.02685547,-0.01074219,0.5927734
2093,33.5,-47.625,6.3125,0.2807617,0.1152344,-0.1577148,-0.02685547,-0.01074219,0.5927734
2097,37.875,-49.625,5.125,0.2963867,0.09960938,-0.1958008,-0.02392578,-0.01074219,0.5927734
2101,41.3125,-51.6875,4.1875,0.315918,0.08007813,-0.2148438,-0.02148438,-0.01074219,0.5952148
2105,44.125,-53.9375,3.1875,0.3237305,0.05664063,-0.237793,-0.02148438,-0.01074219,0.5952148
2109,47,-56.75,2.5,0.3276367,0.03710938,-0.2685547,-0.02148438,-0.0078125,0.5927734
2113,49,-60.3125,1.6875,0.331543,0.03320313,-0.2915039,-0.01904297,-0.0078125,0.5927734
2117,49.8125,-64.625,0.3125,0.3276367,0.01757813,-0.3300781,-0.01904297,-0.0078125,0.5927734
2121,48.5625,-69.25,-0.25,0.331543,0.001953125,-0.3603516,-0.01660156,-0.005371094,0.5942383
2125,45.375,-75.75,-0.5625,0.3276367,-0.005371094,-0.3833008,-0.015625,-0.00390625,0.5942383
2129,41.3125,-82.375,-0.1875,0.3081055,-0.01708984,-0.40625,-0.015625,-0.00390625,0.5942383
2133,37.4375,-88.375,0.3125,0.2924805,-0.02490234,-0.4331055,-0.01269531,-0.00390625,0.5942383
2137,32.5625,-96.875,1.5,0.2768555,-0.03271484,-0.4560547,-0.009277344,-0.002441406,0.5913086
2141,27.875,-104.5625,2.1875,0.2573242,-0.02880859,-0.4677734,-0.009277344,-0.002441406,0.5913086
2145,23.5625,-112.1875,3.5,0.253418,-0.01708984,-0.4868164,-0.0078125,-0.001464844,0.5942383
2149,20.125,-118.75,4.5,0.2456055,0.009765625,-0.4829102,-0.004394531,0.0009765625,0.5913086
2153,17.875,-123.25,4.75,0.237793,0.04882813,-0.4638672,-0.004394531,0.0009765625,0.5913086
2157,16.8125,-125.1875,3.8125,0.2299805,0.08789063,-0.440918,-0.0004882813,0.001953125,0.5913086
2161,16.75,-124.375,2.0625,0.222168,0.1152344,-0.4140625,0.001464844,0.0009765625,0.5913086
2165,18.875,-120.25,-0.6875,0.2026367,0.1425781,-0.3911133,0.001464844,0.0009765625,0.5913086
2169,23.6875,-115,-3.9375,0.1713867,0.1542969,-0.3793945,0.006347656,0.0009765625,0.5898438
2173,30,-108.5,-7.25,0.1674805,0.1582031,-0.3911133,0.01025391,0.003417969,0.5898438
2177,36.4375,-100.9375,-10.3125,0.1518555,0.1347656,-0.4101563,0.01025391,0.003417969,0.5898438
2181,41.3125,-93.375,-12.8125,0.1206055,0.1386719,-0.440918,0.01269531,0.004882813,0.5874023
2185,47.5625,-89.8125,-16.1875,0.1010742,0.1230469,-0.4790039,0.01660156,0.005859375,0.5859375
2189,54.3125,-84.4375,-19.875,0.08544922,0.09570313,-0.4946289,0.01660156,0.005859375,0.5859375
2194,75.5,-80.3125,-31.375,-0.1088867,-0.1264648,-0.831543,0.02392578,0.01513672,0.5859375
2198,71.625,-89.875,-27.625,-0.1518555,-0.1811523,-0.9311523,0.02783203,0.01953125,0.5898438
2202,66.1875,-102.8125,-21.8125,-0.190918,-0.2163086,-1.019043,0.02783203,0.02197266,0.5874023
2206,60.875,-117.3125,-15.375,-0.2260742,-0.2280273,-1.099609,0.02783203,0.02197266,0.5874023
2210,54.4375,-133.0625,-8.1875,-0.2495117,-0.2319336,-1.160645,0.03125,0.02441406,0.5874023
2214,46.8125,-149.3125,-0.125,-0.2568359,-0.2084961,-1.191406,0.03759766,0.02880859,0.5859375
2218,38.8125,-162.75,6.8125,-0.2416992,-0.1811523,-1.195313,0.03759766,0.02880859,0.5859375
2222,29.5625,-172.5625,12.3125,-0.2143555,-0.1420898,-1.179688,0.04150391,0.02880859,0.5874023
2226,20.8125,-177.9375,15.875,-0.1870117,-0.1069336,-1.145508,0.04638672,0.02880859,0.5820313
2230,13.9375,-179.4375,17.625,-0.159668,-0.06396484,-1.11084,0.04638672,0.02880859,0.5820313
2234,10.4375,-177.625,16.4375,-0.1323242,-0.02490234,-1.072754,0.05273438,0.02978516,0.5820313
2238,10.6875,-172.5625,13.375,-0.1166992,-0.005371094,-1.045898,0.05761719,0.03125,0.578125
2242,13.25,-163.75,9.1875,-0.1010742,0.02539063,-1.003906,0.05761719,0.03125,0.578125
2246,18.1875,-152.75,3.6875,-0.09326172,0.04101563,-0.980957,0.06152344,0.03125,0.578125
2250,23.75,-141,-3.25,-0.1049805,0.04882813,-0.9770508,0.06884766,0.03125,0.5751953
2254,29.25,-129.625,-9.6875,-0.1088867,0.03710938,-0.984375,0.06884766,0.03125,0.5751953
2258,35.625,-117.1875,-19.0625,-0.144043,0.05273438,-0.9770508,0.07128906,0.03369141,0.5742188
2262,44.3125,-105.375,-28.3125,-0.1831055,0.02539063,-1.019043,0.07617188,0.03515625,0.5742188
2266,52.25,-94.75,-36,-0.222168,0.001953125,-1.049805,0.07617188,0.03515625,0.5742188
2270,58.125,-86.75,-41.625,-0.2724609,-0.03662109,-1.091797,0.07861328,0.03808594,0.5742188
2274,61.1875,-78,-45.25,-0.3154297,-0.07177734,-1.152832,0.08251953,0.0390625,0.5712891
2278,62.25,-73.3125,-46.375,-0.3623047,-0.09912109,-1.202637,0.08251953,0.0390625,0.5712891
2282,60.5,-66.625,-46.1875,-0.3701172,-0.1108398,-1.19873,0.08251953,0.04052734,0.5727539
2286,56.1875,-58.875,-46.25,-0.4326172,-0.09130859,-1.279297,0.08642578,0.04296875,0.5727539
2290,50.0625,-59.3125,-42.1875,-0.4873047,-0.1186523,-1.386719,0.08642578,0.04296875,0.5727539
2294,41.6875,-69.3125,-32.25,-0.5498047,-0.1616211,-1.493652,0.09130859,0.04736328,0.5712891
2298,31.4375,-88.3125,-17.4375,-0.5693359,-0.1967773,-1.547363,0.09375,0.04980469,0.5712891
2303,-6.25,-168.875,46.375,-0.3271484,-0.02490234,-1.367188,0.1098633,0.04736328,0.5634766
2307,-7,-169.4375,48.625,-0.2802734,-0.005371094,-1.34082,0.1098633,0.04736328,0.5634766
2311,-4.8125,-166.1875,48.0625,-0.2495117,0.01367188,-1.313965,0.1162109,0.04736328,0.5581055
2315,-2,-161.75,46,-0.2299805,0.009765625,-1.313965,0.125,0.04589844,0.5551758
2319,0.8125,-156.0625,42.5625,-0.2104492,0.009765625,-1.313965,0.125,0.04589844,0.5551758
2323,3.0625,-148.6875,37.6875,-0.1948242,-0.001464844,-1.306152,0.1298828,0.04296875,0.5527344
2327,4.8125,-141.0625,31.5625,-0.1948242,-0.01318359,-1.306152,0.1362305,0.04199219,0.5488281
2331,5.25,-133.5,24.6875,-0.2104492,-0.04052734,-1.321289,0.1362305,0.04199219,0.5488281
2335,6.0625,-126.4375,18.8125,-0.2416992,-0.06396484,-1.344238,0.1411133,0.04052734,0.5444336
2339,6.4375,-118.4375,13.625,-0.2724609,-0.07177734,-1.355957,0.1445313,0.0390625,0.5405273
2343,6,-111.1875,9.5,-0.2958984,-0.09912109,-1.382813,0.1445313,0.0390625,0.5405273
2347,4.3125,-104.0625,5.125,-0.3427734,-0.07958984,-1.394043,0.1499023,0.0390625,0.5366211
2351,1.75,-101.125,1.1875,-0.4130859,-0.09521484,-1.424805,0.1557617,0.0390625,0.5366211
2355,-1.25,-100.4375,0.25,-0.4755859,-0.1225586,-1.443848,0.1557617,0.0390625,0.5366211
2359,-4.75,-100.3125,2.375,-0.5302734,-0.1303711,-1.443848,0.1572266,0.03662109,0.53125
2363,-8.5625,-101.0625,6.5,-0.5654297,-0.1069336,-1.45166,0.1611328,0.03515625,0.5258789
2367,-11.3125,-100.875,8.875,-0.5883789,-0.05615234,-1.455566,0.1611328,0.03515625,0.5258789
2371,-12,-101,11.8125,-0.6000977,-0.001464844,-1.439941,0.1660156,0.03369141,0.5244141
2375,-11.625,-100.3125,16.375,-0.5961914,0.04492188,-1.413574,0.168457,0.03369141,0.519043
2379,-11.5,-99.375,21.375,-0.5771484,0.07617188,-1.386719,0.168457,0.03369141,0.519043
2383,-11.3125,-97.5,25.875,-0.5576172,0.1191406,-1.34082,0.1708984,0.03125,0.5136719
2387,-11.875,-95.0625,29.25,-0.5263672,0.1582031,-1.306152,0.1757813,0.03125,0.5136719
2391,-12.25,-95.6875,32.25,-0.5224609,0.1503906,-1.275391,0.1757813,0.03125,0.5136719
2395,-10.5625,-96.6875,35.3125,-0.5224609,0.1425781,-1.260254,0.1782227,0.02880859,0.5058594
2399,-7.1875,-98.0625,38.875,-0.5224609,0.1113281,-1.237305,0.1821289,0.02734375,0.503418
2403,-1.5625,-98.3125,42.1875,-0.5224609,0.08789063,-1.241211,0.1821289,0.02734375,0.503418
2407,3.6875,-98.375,44.625,-0.5029297,0.06445313,-1.256348,0.1860352,0.02734375,0.4951172
2412,12.625,-83.1875,40.1875,-0.4130859,-0.08349609,-1.359863,0.1948242,0.02050781,0.4804688
2416,12.25,-78.75,37.5,-0.4091797,-0.09130859,-1.375,0.1958008,0.02050781,0.4736328
2420,10.8125,-73.5625,34.125,-0.3974609,-0.1186523,-1.375,0.1958008,0.02050781,0.4736328
2424,8.5,-68.75,29.6875,-0.3974609,-0.1342773,-1.371094,0.199707,0.02050781,0.4711914
2428,6.5625,-63.3125,26,-0.3974609,-0.1459961,-1.378906,0.1982422,0.02197266,0.4672852
2432,4.6875,-58.9375,22.75,-0.4013672,-0.1538086,-1.390625,0.1982422,0.02197266,0.4672852
2436,1.8125,-55.375,19.6875,-0.4013672,-0.1420898,-1.378906,0.2006836,0.01660156,0.4643555
2440,-0.875,-51.375,17.25,-0.4013672,-0.1499023,-1.355957,0.2006836,0.01806641,0.4604492
2444,-1.8125,-48.125,15.875,-0.3935547,-0.1420898,-1.325195,0.2006836,0.01806641,0.4604492
2448,-1.5,-45.125,14.75,-0.3818359,-0.1264648,-1.283203,0.2021484,0.01806641,0.4580078
2452,-0.6875,-42.1875,14.125,-0.3701172,-0.1030273,-1.237305,0.203125,0.01660156,0.456543
2456,0.4375,-39.8125,13.3125,-0.3427734,-0.07177734,-1.195313,0.203125,0.01660156,0.456543
2460,2.375,-37.5,12.8125,-0.3115234,-0.03271484,-1.160645,0.2021484,0.01660156,0.4536133
2464,4.6875,-35.875,11.6875,-0.2880859,-0.005371094,-1.126465,0.203125,0.01953125,0.4511719
2468,6.3125,-34.875,11.3125,-0.2724609,0.009765625,-1.118652,0.203125,0.01953125,0.4511719
2472,7.5,-35.1875,10.4375,-0.2416992,0.03320313,-1.099609,0.203125,0.01660156,0.449707
2476,8.8125,-36,10.1875,-0.2299805,0.03710938,-1.087891,0.203125,0.01513672,0.4482422
2480,10.5,-37.125,10.75,-0.2260742,0.04101563,-1.087891,0.203125,0.01513672,0.4482422
2484,12.625,-38.5,10.8125,-0.2143555,0.02929688,-1.080078,0.2045898,0.01660156,0.4458008
2488,14.125,-40.3125,10.5625,-0.2104492,0.001953125,-1.106934,0.2045898,0.01660156,0.4428711
2492,15,-43.375,10.75,-0.2182617,-0.01318359,-1.133789,0.2045898,0.01660156,0.4428711
2496,15.25,-45.9375,11.125,-0.2260742,-0.04443359,-1.164551,0.203125,0.01660156,0.4404297
2500,15.6875,-48.375,11.6875,-0.2338867,-0.05615234,-1.195313,0.2055664,0.01513672,0.4404297
2504,16.6875,-49.5,11.875,-0.237793,-0.06787109,-1.206543,0.2055664,0.01513672,0.4404297
2508,18.3125,-48.9375,11.1875,-0.237793,-0.07177734,-1.218262,0.2055664,0.01660156,0.4365234
2512,20.75,-46.75,9.625,-0.2456055,-0.07177734,-1.222168,0.2070313,0.01806641,0.4335938
2516,22.625,-44.25,7.125,-0.2260742,-0.09130859,-1.218262,0.2070313,0.01806641,0.4335938
2521,15.5625,-18.3125,-0.9375,-0.3857422,-0.1225586,-1.455566,0.2055664,0.01660156,0.4282227
2525,10.875,-12.75,-1.3125,-0.3896484,-0.1108398,-1.482422,0.2070313,0.01660156,0.4282227
2529,4,-8.0625,-0.5625,-0.4130859,-0.1069336,-1.493652,0.2055664,0.01660156,0.4272461
2533,-0.1875,-3.4375,1.75,-0.4365234,-0.1381836,-1.501465,0.2055664,0.01660156,0.4272461
2537,-0.75,-0.4375,5,-0.4248047,-0.1499023,-1.520508,0.2070313,0.01660156,0.4257813
2541,-1.1875,1.1875,7.5625,-0.4130859,-0.1264648,-1.532227,0.2055664,0.01806641,0.4243164
2545,-3.6875,3.3125,9.3125,-0.3896484,-0.09521484,-1.505371,0.2055664,0.01806641,0.4243164
2549,-3.9375,4.75,9.4375,-0.3662109,-0.06787109,-1.505371,0.2055664,0.01513672,0.4257813
2553,-0.875,6.125,8.375,-0.3232422,-0.06396484,-1.466797,0.2055664,0.01806641,0.4272461
2557,0.1875,10.3125,9.0625,-0.3193359,-0.09130859,-1.447754,0.2055664,0.01806641,0.4272461
2561,-0.0625,13.75,9.1875,-0.3232422,-0.08349609,-1.463379,0.2070313,0.01806641,0.4272461
2565,-0.375,16.75,8,-0.3271484,-0.07958984,-1.493652,0.2070313,0.01806641,0.4257813
2569,-0.1875,19.25,7.5,-0.3427734,-0.08349609,-1.524414,0.2070313,0.01806641,0.4257813
2573,0,23.625,7.3125,-0.3623047,-0.1030273,-1.555176,0.2070313,0.01660156,0.4282227
2577,0.625,27.875,8.0625,-0.3857422,-0.1147461,-1.566406,0.2055664,0.01660156,0.4257813
2581,2.4375,31.5,7,-0.4169922,-0.1108398,-1.570313,0.2055664,0.01660156,0.4257813
2585,4.875,34.25,3.875,-0.4365234,-0.1186523,-1.5625,0.2055664,0.01513672,0.4282227
2589,7.4375,37.375,2.25,-0.4521484,-0.1459961,-1.585449,0.2055664,0.01953125,0.4311523
2593,9.5625,41,1.6875,-0.4677734,-0.1811523,-1.624023,0.2055664,0.01953125,0.4311523
2597,11.5625,44,0,-0.4716797,-0.2006836,-1.666016,0.2070313,0.01513672,0.4326172
2601,10.125,49.125,-0.6875,-0.4873047,-0.2124023,-1.719727,0.2045898,0.01806641,0.4350586
2605,6.9375,56.6875,-1.8125,-0.5107422,-0.2124023,-1.765625,0.2045898,0.01806641,0.4350586
2609,3.4375,65.3125,-3.5625,-0.5341797,-0.2280273,-1.807617,0.2055664,0.01953125,0.4365234
2613,-0.5,72.9375,-4.5,-0.5341797,-0.2514648,-1.857422,0.2070313,0.01806641,0.4404297
2617,-3.5,80.1875,-6.375,-0.5341797,-0.2475586,-1.849609,0.2070313,0.01806641,0.4404297
2621,-7.25,89.8125,-8.0625,-0.5537109,-0.2631836,-1.873047,0.2045898,0.02050781,0.4458008
2625,-9.625,99.375,-8.375,-0.5498047,-0.2827148,-1.865234,0.203125,0.02050781,0.4511719
2630,-3.0625,158.5625,-27.75,-0.4912109,-0.2475586,-1.765625,0.1948242,0.02050781,0.4711914
2634,-0.4375,169.1875,-33.125,-0.4873047,-0.2436523,-1.742676,0.1948242,0.02050781,0.4711914
2638,1.875,180.1875,-38.4375,-0.4833984,-0.2631836,-1.727539,0.1933594,0.0234375,0.4780273
2642,4.6875,191,-44.25,-0.4755859,-0.2709961,-1.723633,0.1870117,0.02441406,0.484375
2646,5.9375,200.8125,-49.5625,-0.4873047,-0.2788086,-1.711914,0.1870117,0.02441406,0.484375
2650,7.4375,210.1875,-54.125,-0.4951172,-0.2944336,-1.70459,0.1821289,0.02587891,0.4926758
2654,9.125,219.375,-57.6875,-0.5146484,-0.3061523,-1.711914,0.1782227,0.02880859,0.503418
2658,9.625,227,-60.1875,-0.5263672,-0.3334961,-1.723633,0.1782227,0.02880859,0.503418
2662,9,233.1875,-61.4375,-0.5185547,-0.3413086,-1.742676,0.1723633,0.02978516,0.5112305
2666,7.1875,236.875,-61.6875,-0.5029297,-0.3491211,-1.73877,0.1621094,0.03369141,0.519043
2670,3.6875,239.625,-62.1875,-0.4912109,-0.3530273,-1.723633,0.1621094,0.03369141,0.519043
2674,0.375,241.6875,-62.125,-0.4755859,-0.3569336,-1.700684,0.1572266,0.03662109,0.5288086
2678,-2.8125,243.125,-62,-0.4365234,-0.3530273,-1.650879,0.1508789,0.03662109,0.5366211
2682,-6.375,244.4375,-62.3125,-0.4052734,-0.3374023,-1.612305,0.1508789,0.03662109,0.5366211
2686,-10,245.8125,-62.75,-0.3701172,-0.3217773,-1.566406,0.1435547,0.04052734,0.5419922
2690,-14.625,247.125,-63.8125,-0.3427734,-0.2944336,-1.512695,0.1337891,0.04199219,0.5498047
2694,-18.8125,248.25,-64.875,-0.3193359,-0.2827148,-1.470703,0.1337891,0.04199219,0.5498047
2698,-22.8125,247.8125,-65.75,-0.3115234,-0.2788086,-1.459473,0.1259766,0.04199219,0.5581055
2702,-28.1875,245.5625,-65.1875,-0.2998047,-0.2866211,-1.420898,0.1162109,0.04296875,0.5634766
2706,-32.5,242.5,-64.3125,-0.2919922,-0.2788086,-1.378906,0.1162109,0.04296875,0.5634766
2710,-36.8125,238.375,-63.625,-0.2880859,-0.2553711,-1.329102,0.1049805,0.04589844,0.5688477
2714,-41,233.6875,-62.9375,-0.2841797,-0.2319336,-1.306152,0.09619141,0.04296875,0.5742188
2718,-45.375,228.75,-61.6875,-0.2958984,-0.2319336,-1.245117,0.09619141,0.04296875,0.5742188
2722,-48.1875,222.875,-59,-0.3115234,-0.2358398,-1.218262,0.08886719,0.04589844,0.5795898
2726,-50.125,215.1875,-55.625,-0.3349609,-0.2319336,-1.19873,0.08105469,0.04443359,0.5834961
2730,-51.3125,207.375,-51.4375,-0.3427734,-0.2358398,-1.179688,0.08105469,0.04443359,0.5834961
2734,-54.875,200.1875,-47.1875,-0.3466797,-0.2124023,-1.172363,0.07275391,0.04296875,0.5874023
2739,-69.25,166.6875,-28,-0.3076172,-0.1811523,-0.9541016,0.04248047,0.03808594,0.5927734
2743,-73.875,163.875,-25.375,-0.2958984,-0.1772461,-0.9194336,0.03662109,0.03369141,0.5966797
2747,-77,158.0625,-24.625,-0.2841797,-0.1499023,-0.9116211,0.03662109,0.03369141,0.5966797
2751,-78.4375,152.5625,-23.6875,-0.2607422,-0.1342773,-0.8696289,0.03271484,0.03369141,0.5952148
2755,-79.6875,146.875,-22.875,-0.2607422,-0.1108398,-0.8388672,0.02880859,0.02978516,0.5981445
2759,-81.5625,141.875,-22.125,-0.2529297,-0.1069336,-0.796875,0.02880859,0.02978516,0.5981445
2763,-84.0625,137.125,-21.5,-0.2529297,-0.08740234,-0.7661133,0.02294922,0.02978516,0.5996094
2767,-86.375,133.25,-21.5625,-0.2416992,-0.07568359,-0.7431641,0.01660156,0.02587891,0.5996094
2771,-88.9375,130.4375,-20.1875,-0.2416992,-0.08740234,-0.6860352,0.01660156,0.02587891,0.5996094
2775,-91.75,126.8125,-18.8125,-0.2529297,-0.05224609,-0.6933594,0.01269531,0.0234375,0.5996094
2779,-93.625,122.125,-18.75,-0.2495117,-0.005371094,-0.6669922,0.0078125,0.01806641,0.6005859
2783,-96.3125,117.3125,-18.4375,-0.2456055,0.02929688,-0.6401367,0.0078125,0.01806641,0.6005859
2787,-99.125,112.5625,-17.8125,-0.2607422,0.05664063,-0.6171875,0.005371094,0.01660156,0.5996094
2791,-102.5625,107.1875,-16.4375,-0.2724609,0.06835938,-0.5825195,0.001464844,0.01416016,0.6005859
2795,-105.25,101.625,-13.8125,-0.2919922,0.09179688,-0.5517578,0.001464844,0.01416016,0.6005859
2799,-106.75,95.3125,-10.1875,-0.2998047,0.09179688,-0.5175781,-0.002929688,0.01025391,0.5996094
2803,-107.75,89.125,-5.5,-0.2998047,0.1191406,-0.4946289,-0.005371094,0.005859375,0.5996094
2807,-105.375,83.25,-1.5,-0.2998047,0.1621094,-0.4291992,-0.005371094,0.005859375,0.5996094
2811,-103.125,77.9375,2.375,-0.2841797,0.1738281,-0.3950195,-0.009277344,0.003417969,0.5981445
2815,-100.375,73.625,6.3125,-0.2724609,0.1972656,-0.3642578,-0.01171875,0,0.5966797
2819,-96.4375,70.4375,8.75,-0.2607422,0.2363281,-0.3261719,-0.01171875,0,0.5966797
2823,-92.875,68.625,11.0625,-0.2338867,0.2602539,-0.2802734,-0.01171875,-0.002441406,0.6005859
2827,-86.5625,67.4375,13.0625,-0.206543,0.2758789,-0.2495117,-0.01416016,-0.005371094,0.5996094
2831,-83.375,66.5625,13.9375,-0.1948242,0.2641602,-0.2109375,-0.01416016,-0.005371094,0.5996094
2835,-75.5,66.1875,14.5,-0.1479492,0.2993164,-0.1767578,-0.015625,-0.01074219,0.5981445
2839,-66.3125,66.5,14.125,-0.1049805,0.3110352,-0.1650391,-0.01660156,-0.01171875,0.5996094
2843,-57.625,67.1875,12.8125,-0.06982422,0.3071289,-0.1381836,-0.01660156,-0.01171875,0.5996094
2848,-22.25,70.5,-0.1875,0.1635742,0.2836914,-0.1269531,-0.02685547,-0.02001953,0.5981445
2852,-18.8125,70.375,-3.25,0.1948242,0.2915039,-0.1381836,-0.02929688,-0.01855469,0.5996094
2856,-15.875,69.8125,-6.4375,0.222168,0.2875977,-0.1347656,-0.03027344,-0.01855469,0.6005859
2860,-14.1875,68.8125,-8.875,0.2495117,0.2836914,-0.1459961,-0.03027344,-0.01855469,0.6005859
2864,-13,66.5625,-11.0625,0.2612305,0.2836914,-0.1538086,-0.03271484,-0.02001953,0.5981445
2868,-12.375,63.6875,-12.875,0.2729492,0.2875977,-0.1420898,-0.03173828,-0.02099609,0.5996094
2872,-11.375,60.125,-13.875,0.2768555,0.2875977,-0.1499023,-0.03173828,-0.02099609,0.5996094
2876,-9.6875,56.4375,-15.125,0.284668,0.2915039,-0.1499023,-0.03515625,-0.02001953,0.6005859
2880,-7.875,52,-15.625,0.2885742,0.2993164,-0.1420898,-0.03759766,-0.02099609,0.5996094
2884,-6.0625,47.375,-15.9375,0.2885742,0.2993164,-0.1381836,-0.03759766,-0.02099609,0.5996094
2888,-4.0625,42.5,-15.5625,0.2963867,0.2993164,-0.1269531,-0.04052734,-0.02246094,0.5981445
2892,-1.9375,36.75,-14.625,0.2963867,0.3110352,-0.1420898,-0.04052734,-0.02246094,0.5996094
2896,0.5,31.1875,-13.3125,0.2885742,0.3188477,-0.1420898,-0.04052734,-0.02246094,0.5996094
2900,2.5625,25.6875,-11.375,0.2963867,0.3266602,-0.1616211,-0.04296875,-0.02099609,0.5996094
2904,3.625,20.5,-9.0625,0.2963867,0.3305664,-0.1845703,-0.04150391,-0.02246094,0.5981445
2908,4.5625,15.0625,-6.4375,0.2963867,0.3305664,-0.1958008,-0.04150391,-0.02246094,0.5981445
2912,4.5,9.5625,-2.9375,0.300293,0.3266602,-0.2036133,-0.04296875,-0.02246094,0.5996094
2916,4.5,3.75,0.375,0.3041992,0.3188477,-0.2075195,-0.04296875,-0.02001953,0.5996094
2920,5,-1.875,3.875,0.3041992,0.3266602,-0.2148438,-0.04296875,-0.02001953,0.5996094
2924,5.8125,-8,7.75,0.3081055,0.3227539,-0.2226563,-0.04394531,-0.02001953,0.6005859
2928,6.8125,-14.9375,11.875,0.3120117,0.3227539,-0.234375,-0.04296875,-0.02246094,0.5981445
2932,8.0625,-21.6875,15.6875,0.3198242,0.3305664,-0.2265625,-0.04296875,-0.02246094,0.5981445
2936,9.6875,-28.875,19.0625,0.3198242,0.3110352,-0.2495117,-0.04150391,-0.02099609,0.5981445
2940,9.75,-37.0625,24.3125,0.3393555,0.3032227,-0.2724609,-0.04150391,-0.02099609,0.5981445
2944,9.3125,-44.375,28.4375,0.362793,0.2915039,-0.2573242,-0.04150391,-0.02099609,0.5981445
2948,9.6875,-50.625,31.625,0.3706055,0.3071289,-0.2456055,-0.0390625,-0.02001953,0.5996094
2952,11.6875,-56.0625,33.125,0.3862305,0.3071289,-0.253418,-0.03662109,-0.02001953,0.5981445
2957,34.1875,-68.6875,28.625,0.4135742,0.2441406,-0.3334961,-0.03027344,-0.01611328,0.5996094
2961,37.1875,-71.375,27.25,0.4169922,0.2285156,-0.3642578,-0.03027344,-0.01611328,0.5996094
2965,40.25,-73.875,25.8125,0.4135742,0.2089844,-0.4140625,-0.02783203,-0.02001953,0.5981445
2969,41.9375,-76.375,24.4375,0.4169922,0.1933594,-0.4331055,-0.02539063,-0.01708984,0.5966797
2973,44.125,-78,21.75,0.4135742,0.1972656,-0.4448242,-0.02539063,-0.01708984,0.5966797
2977,45.6875,-80.0625,19.625,0.409668,0.1699219,-0.4868164,-0.02539063,-0.01708984,0.5952148
2981,44.5,-83.6875,19.3125,0.4057617,0.1386719,-0.5214844,-0.02148438,-0.01464844,0.6005859
2985,41.375,-86.5,18.8125,0.409668,0.1347656,-0.5444336,-0.02148438,-0.01464844,0.6005859
2989,37.4375,-89.625,17.625,0.4018555,0.1347656,-0.5517578,-0.01806641,-0.01171875,0.5966797
2993,33.4375,-91.625,16.0625,0.3862305,0.1347656,-0.5517578,-0.015625,-0.01464844,0.5952148
2997,29.75,-95.3125,13.9375,0.3666992,0.1464844,-0.5595703,-0.015625,-0.01464844,0.5952148
3001,26.375,-99.1875,12.375,0.3354492,0.1386719,-0.5673828,-0.01416016,-0.01074219,0.5966797
3005,23.9375,-105.0625,10.8125,0.3081055,0.1347656,-0.5673828,-0.009277344,-0.009277344,0.5952148
3009,21.1875,-111.25,9.625,0.2963867,0.1386719,-0.5634766,-0.009277344,-0.009277344,0.5952148
3013,18.0625,-116.8125,8.8125,0.284668,0.1621094,-0.5366211,-0.006835938,-0.009277344,0.5966797
3017,15.5,-120.5,8.1875,0.2885742,0.1816406,-0.5058594,-0.002929688,-0.0078125,0.5981445
3021,15.125,-122.4375,8.4375,0.2768555,0.1933594,-0.4907227,-0.002929688,-0.0078125,0.5981445
3025,17.4375,-122.1875,8.375,0.2729492,0.2050781,-0.4521484,0.001464844,-0.009277344,0.5966797
3029,22.5,-120.3125,8,0.253418,0.2050781,-0.4331055,0.005371094,-0.0078125,0.5952148
3033,29.0625,-117.3125,7.25,0.237793,0.1972656,-0.4179688,0.005371094,-0.0078125,0.5952148
3037,36.625,-114.1875,5.9375,0.2260742,0.1894531,-0.4448242,0.006347656,-0.005371094,0.5942383
3041,45.3125,-111.8125,3.1875,0.206543,0.1777344,-0.4790039,0.01269531,-0.006835938,0.5942383
3045,53.4375,-109,0,0.1831055,0.1464844,-0.5214844,0.01269531,-0.006835938,0.5942383
3049,60.5,-105.8125,-2.875,0.1635742,0.1035156,-0.5634766,0.01513672,-0.00390625,0.5927734
3053,64.875,-102.5625,-5.625,0.144043,0.06445313,-0.609375,0.01660156,-0.002441406,0.5927734
3057,69.1875,-100.3125,-8.5,0.1049805,0.02539063,-0.6899414,0.01660156,-0.002441406,0.5927734
3061,71.75,-99.5625,-10.8125,0.08935547,-0.01708984,-0.7626953,0.02294922,0.001953125,0.5913086
3066,42,-120.8125,-3.5625,-0.1088867,-0.2280273,-1.172363,0.03662109,0.008789063,0.5888672
3070,32.875,-127.1875,-0.0625,-0.128418,-0.2163086,-1.19873,0.04003906,0.01123047,0.5898438
3074,24.875,-133.5625,3.4375,-0.1401367,-0.1928711,-1.19873,0.04003906,0.01123047,0.5898438
3078,15.75,-139.75,7.6875,-0.1518555,-0.1577148,-1.183594,0.04150391,0.01123047,0.5888672
3082,5.625,-145,11.75,-0.159668,-0.1303711,-1.156738,0.04785156,0.01123047,0.5874023
3086,-3.4375,-149.125,15.1875,-0.1518555,-0.09130859,-1.099609,0.04785156,0.01123047,0.5874023
3090,-10.5,-152.8125,18.1875,-0.1323242,-0.03662109,-1.030273,0.05126953,0.01123047,0.5859375
3094,-14.8125,-152.25,21.1875,-0.1166992,-0.01318359,-0.9116211,0.05761719,0.01123047,0.5834961
3098,-15.625,-151.3125,22.375,-0.1088867,0.06054688,-0.8964844,0.05761719,0.01123047,0.5834961
3102,-12.0625,-148.9375,19.5625,-0.08935547,0.1425781,-0.8198242,0.0625,0.01123047,0.5834961
3106,-6.625,-144.6875,16.375,-0.07373047,0.1542969,-0.8046875,0.06738281,0.01123047,0.5820313
3110,1.9375,-138.0625,11.875,-0.07373047,0.1699219,-0.7587891,0.06738281,0.01123047,0.5820313
3114,13.125,-128.75,5.4375,-0.08935547,0.1699219,-0.7509766,0.07373047,0.01025391,0.5805664
3118,26.25,-116.4375,-1.5625,-0.1010742,0.1464844,-0.7661133,0.07763672,0.01025391,0.5795898
3122,39.75,-102.1875,-9.3125,-0.1049805,0.1269531,-0.7890625,0.07763672,0.01025391,0.5795898
3126,52.0625,-87.6875,-17.1875,-0.1088867,0.1035156,-0.8427734,0.08105469,0.01123047,0.5795898
3130,61.375,-76.0625,-24.8125,-0.1323242,0.06445313,-0.9272461,0.08251953,0.01416016,0.578125
3134,67.625,-66,-31.0625,-0.1557617,0.01367188,-1,0.08251953,0.01416016,0.578125
3138,73.4375,-56.875,-35.5625,-0.1674805,-0.04443359,-1.053711,0.08642578,0.01513672,0.5766602
3142,79,-48.8125,-39.6875,-0.175293,-0.09912109,-1.118652,0.08740234,0.01953125,0.5751953
3146,81.8125,-42.125,-43.4375,-0.1987305,-0.1264648,-1.175781,0.08740234,0.01953125,0.5751953
3150,81.1875,-37.8125,-46.25,-0.2104492,-0.1381836,-1.248535,0.09228516,0.02197266,0.5742188
3154,77.8125,-34.9375,-47.4375,-0.2260742,-0.1694336,-1.294922,0.09228516,0.02441406,0.5751953
3158,74.5625,-34.25,-46.875,-0.2338867,-0.1811523,-1.321289,0.09228516,0.02441406,0.5751953
3162,70.625,-34.8125,-45.4375,-0.2495117,-0.1928711,-1.333008,0.09375,0.02734375,0.5742188
3166,65.875,-38,-42.875,-0.2724609,-0.1811523,-1.333008,0.09619141,0.03271484,0.5727539
3170,59.4375,-43.9375,-38.8125,-0.2919922,-0.1811523,-1.344238,0.09619141,0.03271484,0.5727539
3175,12.5625,-99.0625,5.6875,-0.3388672,0.01367188,-1.156738,0.105957,0.03808594,0.5673828
3179,8.25,-107.75,13.4375,-0.3232422,0.05664063,-1.122559,0.1088867,0.03662109,0.5644531
3183,5.6875,-115.125,20.375,-0.3154297,0.08789063,-1.072754,0.1137695,0.03662109,0.5620117
3187,4.75,-120.6875,27.5,-0.2998047,0.1074219,-1.01123,0.1137695,0.03662109,0.5620117
3191,5.875,-124.9375,34.125,-0.2958984,0.1230469,-0.980957,0.1196289,0.03808594,0.559082
3195,11.75,-129.4375,37.8125,-0.2802734,0.1503906,-0.9575195,0.1235352,0.03808594,0.5581055
3199,18.75,-132.375,40.5,-0.2646484,0.1503906,-0.9501953,0.1235352,0.03808594,0.5581055
3203,25.4375,-133.0625,42.1875,-0.2568359,0.1386719,-0.9575195,0.1274414,0.03515625,0.5551758
3207,31.5,-131.9375,42.6875,-0.2456055,0.1035156,-0.965332,0.1337891,0.03662109,0.5498047
3211,36.625,-129.5625,41.375,-0.2182617,0.08398438,-1.003906,0.1337891,0.03662109,0.5498047
3215,40.875,-125.5625,38.9375,-0.1987305,0.05273438,-1.030273,0.1386719,0.03369141,0.543457
3219,44.375,-121.25,35.5,-0.1791992,0.02539063,-1.049805,0.1420898,0.03662109,0.5419922
3223,47.25,-115.625,30.6875,-0.1831055,-0.001464844,-1.061035,0.1420898,0.03662109,0.5419922
3227,49.5,-109.875,25,-0.1987305,-0.04052734,-1.103027,0.1459961,0.03662109,0.5380859
3231,50.1875,-105.5,19.75,-0.222168,-0.08349609,-1.145508,0.1508789,0.03515625,0.5327148
3235,49.6875,-102.875,15.1875,-0.2495117,-0.1147461,-1.202637,0.1508789,0.03515625,0.5327148
3239,48.375,-100.8125,11.875,-0.2685547,-0.1381836,-1.237305,0.1547852,0.03662109,0.5273438
3243,46.5,-99.5625,9,-0.2958984,-0.1420898,-1.279297,0.1547852,0.03662109,0.5234375
3247,43.1875,-99.4375,7.125,-0.3271484,-0.1420898,-1.287109,0.1547852,0.03662109,0.5234375
3251,39.375,-98.25,5.375,-0.3740234,-0.1342773,-1.310059,0.159668,0.0390625,0.519043
3255,35.875,-99.375,4.75,-0.4169922,-0.1420898,-1.352051,0.1635742,0.03662109,0.5151367
3259,32,-101.125,6.875,-0.4560547,-0.1420898,-1.394043,0.1635742,0.03662109,0.5151367
3263,26.75,-102.875,10.5625,-0.4716797,-0.1225586,-1.409668,0.1669922,0.03808594,0.5126953
3267,20.1875,-105.4375,15.4375,-0.4873047,-0.1069336,-1.424805,0.1708984,0.03808594,0.503418
3271,13.625,-108.125,21.0625,-0.4833984,-0.09130859,-1.413574,0.1708984,0.03808594,0.503418
3275,9.1875,-108.6875,25,-0.4794922,-0.04443359,-1.36377,0.1733398,0.03808594,0.4990234
3279,9.3125,-108.625,27.9375,-0.4794922,-0.03271484,-1.329102,0.1748047,0.03662109,0.4936523
3284,35.1875,-85.375,35.1875,-0.3544922,-0.06787109,-1.336914,0.1821289,0.03662109,0.4765625
3288,37.125,-80,33.625,-0.3427734,-0.09130859,-1.367188,0.1821289,0.03662109,0.4765625
3292,38.625,-74.9375,32.125,-0.3349609,-0.1303711,-1.409668,0.1845703,0.03662109,0.4711914
3296,40.375,-70.125,30.1875,-0.3271484,-0.1655273,-1.424805,0.1860352,0.03515625,0.4672852
3300,41.5625,-65.625,28,-0.3154297,-0.1889648,-1.436523,0.1860352,0.03515625,0.4672852
3304,41,-61.8125,25.8125,-0.3115234,-0.2202148,-1.459473,0.1884766,0.03369141,0.4619141
3308,39.3125,-58.375,23.125,-0.3115234,-0.2319336,-1.501465,0.1870117,0.03515625,0.4580078
3312,36.3125,-55.1875,20.125,-0.3232422,-0.2514648,-1.52832,0.1870117,0.03515625,0.4580078
3316,33,-51.75,17.9375,-0.3388672,-0.2553711,-1.543457,0.1884766,0.03515625,0.456543
3320,29.4375,-48.25,15.8125,-0.3310547,-0.2436523,-1.5625,0.1884766,0.03515625,0.4536133
3324,24.625,-44.8125,14.375,-0.3505859,-0.2475586,-1.5625,0.1884766,0.03515625,0.4536133
3328,19.3125,-41.8125,13.6875,-0.3740234,-0.2397461,-1.574219,0.1870117,0.03125,0.4511719
3332,13.8125,-40.6875,13.9375,-0.3974609,-0.2241211,-1.574219,0.1894531,0.03515625,0.4482422
3336,8.75,-40.625,15,-0.4169922,-0.2124023,-1.582031,0.1894531,0.03515625,0.4482422
3340,4.1875,-41.0625,17.4375,-0.4208984,-0.2045898,-1.566406,0.190918,0.03515625,0.4472656
3344,1.0625,-41.0625,20.1875,-0.4365234,-0.1889648,-1.559082,0.190918,0.03369141,0.4443359
3348,-1,-41.5,23.1875,-0.4326172,-0.1811523,-1.555176,0.190918,0.03369141,0.4443359
3352,-2.875,-41.8125,26.5625,-0.4404297,-0.1655273,-1.547363,0.1894531,0.03271484,0.4418945
3356,-5.625,-42.4375,30,-0.4365234,-0.1616211,-1.539551,0.1918945,0.03125,0.4404297
3360,-7.125,-42.5,34,-0.4208984,-0.1616211,-1.543457,0.1918945,0.03125,0.4404297
3364,-8.5,-42.6875,37.8125,-0.4130859,-0.1655273,-1.55127,0.1933594,0.03125,0.4389648
3368,-9.9375,-43.6875,42.0625,-0.3935547,-0.1811523,-1.547363,0.190918,0.02978516,0.4389648
3372,-12,-45.25,45.625,-0.3740234,-0.1928711,-1.566406,0.190918,0.02978516,0.4389648
3376,-14.5,-47.375,48.5,-0.3623047,-0.2124023,-1.574219,0.1948242,0.02880859,0.4389648
3380,-16.3125,-49,50.6875,-0.3466797,-0.2241211,-1.578125,0.1948242,0.02441406,0.4335938
3384,-17.5,-48.9375,51.8125,-0.3232422,-0.2436523,-1.574219,0.1948242,0.02441406,0.4335938
3388,-18.375,-47.875,51.5,-0.2998047,-0.2514648,-1.570313,0.1933594,0.02441406,0.4335938
3393,-12.25,-15.4375,28.6875,-0.206543,-0.3256836,-1.578125,0.199707,0.01953125,0.4326172
3397,-9.875,-5.625,21.25,-0.2026367,-0.3139648,-1.5625,0.1972656,0.01806641,0.4296875
3401,-8,6.625,12.875,-0.2026367,-0.2905273,-1.574219,0.1972656,0.01806641,0.4296875
3405,-6.3125,19.5625,4.3125,-0.1948242,-0.2788086,-1.585449,0.2006836,0.01806641,0.4282227
3409,-4.1875,32,-4.3125,-0.1948242,-0.2827148,-1.585449,0.2006836,0.02050781,0.4326172
3413,-1.625,45.4375,-12.1875,-0.206543,-0.2788086,-1.570313,0.2006836,0.02050781,0.4326172
3417,-0.8125,58.625,-19.1875,-0.2143555,-0.2709961,-1.589355,0.199707,0.01660156,0.4365234
3421,-1.625,70.0625,-25,-0.2299805,-0.2553711,-1.612305,0.1982422,0.01953125,0.4365234
3425,-3.25,78.0625,-29,-0.2568359,-0.2592773,-1.616211,0.1982422,0.01953125,0.4365234
3429,-4.3125,82.9375,-30.6875,-0.2724609,-0.2553711,-1.620117,0.1982422,0.02050781,0.4404297
3433,-3.4375,85.8125,-31.625,-0.2958984,-0.2514648,-1.593262,0.1972656,0.02197266,0.4428711
3437,-1,87.8125,-31.75,-0.3154297,-0.2514648,-1.578125,0.1972656,0.02197266,0.4428711
3441,2.5,90.875,-32.3125,-0.3310547,-0.2202148,-1.539551,0.1972656,0.0234375,0.4472656
3445,4.5625,94.5,-32.875,-0.3271484,-0.1967773,-1.543457,0.1948242,0.0234375,0.449707
3449,4.8125,97.1875,-32.75,-0.3232422,-0.2084961,-1.55127,0.1948242,0.0234375,0.449707
3453,4.3125,101.0625,-32.5625,-0.3232422,-0.2084961,-1.539551,0.1948242,0.02587891,0.4589844
3457,3.8125,105.6875,-32.5,-0.3154297,-0.2124023,-1.543457,0.1918945,0.02587891,0.4580078
3461,4.375,110.0625,-32.9375,-0.3154297,-0.2319336,-1.555176,0.1918945,0.02587891,0.4580078
3465,5.1875,114.5625,-33.375,-0.3115234,-0.2475586,-1.559082,0.1918945,0.02880859,0.4672852
3469,6.125,119.25,-34.875,-0.3193359,-0.2553711,-1.555176,0.1884766,0.02978516,0.4726563
3473,7.875,124.25,-36.8125,-0.3193359,-0.2670898,-1.5625,0.1884766,0.02978516,0.4726563
3477,8.625,127.3125,-37.4375,-0.3154297,-0.3061523,-1.582031,0.1884766,0.03125,0.4765625
3481,8,130.3125,-38.4375,-0.3232422,-0.3178711,-1.589355,0.1835938,0.03271484,0.4819336
3485,6.9375,132.875,-39.6875,-0.3349609,-0.3295898,-1.597168,0.1835938,0.03271484,0.4819336
3489,6.25,135.25,-41.5625,-0.3349609,-0.3334961,-1.578125,0.1821289,0.03369141,0.4882813
3493,6,137.4375,-44.25,-0.3427734,-0.3569336,-1.589355,0.1772461,0.03515625,0.4926758
3497,5.0625,139,-46.5625,-0.3544922,-0.3686523,-1.612305,0.1772461,0.03515625,0.4926758
3502,-22.375,149.75,-55.5625,-0.3974609,-0.3374023,-1.574219,0.1621094,0.04199219,0.5180664
3506,-27.6875,152.75,-57,-0.4013672,-0.3217773,-1.52832,0.1572266,0.04296875,0.5258789
3510,-32.9375,155.375,-57.625,-0.4091797,-0.3178711,-1.493652,0.1508789,0.04443359,0.5297852
3514,-38.3125,156.6875,-58.125,-0.4169922,-0.2983398,-1.45166,0.1508789,0.04443359,0.5297852
3518,-42.6875,157.375,-58.875,-0.4287109,-0.2788086,-1.409668,0.1445313,0.04296875,0.5390625
3522,-46.625,156.25,-57.9375,-0.4287109,-0.2866211,-1.378906,0.1396484,0.04736328,0.543457
3526,-50.75,154.8125,-56.125,-0.4287109,-0.2749023,-1.333008,0.1396484,0.04736328,0.543457
3530,-53.1875,153.9375,-54.625,-0.4287109,-0.2592773,-1.291016,0.1337891,0.04589844,0.5512695
3534,-55,152.25,-53.25,-0.4208984,-0.2397461,-1.260254,0.1259766,0.04589844,0.5551758
3538,-57.5625,149.625,-52.5,-0.4169922,-0.2006836,-1.229492,0.1259766,0.04589844,0.5551758
3542,-59.9375,146.9375,-52.25,-0.4169922,-0.2084961,-1.168457,0.1186523,0.04443359,0.5620117
3546,-59.5625,145.4375,-51,-0.4052734,-0.2084961,-1.133789,0.1162109,0.04589844,0.565918
3550,-58.25,142.625,-48.75,-0.4013672,-0.2202148,-1.11084,0.1162109,0.04589844,0.565918
3554,-57.3125,139.9375,-46.25,-0.3935547,-0.2045898,-1.07666,0.1074219,0.04443359,0.5698242
3558,-57,137.875,-45,-0.3818359,-0.1811523,-1.057129,0.1010742,0.04296875,0.5727539
3562,-57.5625,135.5,-44.625,-0.3662109,-0.1772461,-1.053711,0.1010742,0.04296875,0.5727539
3566,-58.375,132.75,-43.8125,-0.3505859,-0.1577148,-1.026855,0.09765625,0.04199219,0.5751953
3570,-59.4375,130.625,-43.4375,-0.3427734,-0.1616211,-1,0.08984375,0.04199219,0.578125
3574,-59.625,128.3125,-43.125,-0.3388672,-0.1577148,-0.980957,0.08984375,0.04199219,0.578125
3578,-59.875,126.625,-42.6875,-0.3310547,-0.1538086,-0.9692383,0.08398438,0.04052734,0.5805664
3582,-60.3125,124.3125,-42.875,-0.3232422,-0.1303711,-0.9311523,0.08007813,0.04052734,0.5820313
3586,-60.625,122.625,-43.5625,-0.3154297,-0.1108398,-0.9233398,0.08007813,0.04052734,0.5820313
3590,-60.6875,120.9375,-44.3125,-0.3037109,-0.09130859,-0.8964844,0.07519531,0.0390625,0.5834961
3594,-61.3125,119.4375,-45.1875,-0.2919922,-0.08349609,-0.8813477,0.06884766,0.04052734,0.5844727
3598,-63,117.625,-45.375,-0.2841797,-0.07177734,-0.8696289,0.06884766,0.04052734,0.5844727
3602,-66.1875,115.4375,-45.1875,-0.2841797,-0.04443359,-0.8544922,0.06494141,0.03662109,0.5844727
3606,-70.375,112.875,-44.9375,-0.2841797,-0.02099609,-0.8354492,0.06005859,0.03515625,0.5874023
3611,-82.875,94.4375,-29.875,-0.2998047,0.08007813,-0.628418,0.04492188,0.02734375,0.5898438
3615,-79.5,90.5625,-26.25,-0.2958984,0.1074219,-0.5825195,0.04492188,0.02734375,0.5898438
3619,-76,86.9375,-23.5,-0.2763672,0.1347656,-0.5634766,0.04150391,0.02441406,0.5942383
3623,-71.9375,84.3125,-21.0625,-0.2646484,0.1542969,-0.5444336,0.03759766,0.02441406,0.5942383
3627,-69.0625,82.8125,-19.0625,-0.2416992,0.1816406,-0.5249023,0.03759766,0.02441406,0.5942383
3631,-66.875,81.5625,-17.75,-0.237793,0.1933594,-0.5136719,0.03515625,0.02050781,0.5898438
3635,-65.1875,81.3125,-16.625,-0.222168,0.1972656,-0.5097656,0.03125,0.01953125,0.5927734
3639,-63,81.0625,-15.3125,-0.2104492,0.2011719,-0.5058594,0.03125,0.01953125,0.5927734
3643,-61.25,80.3125,-14.5,-0.1987305,0.2089844,-0.4985352,0.03027344,0.01660156,0.5913086
3647,-60.3125,79.25,-13.875,-0.1831055,0.2207031,-0.5019531,0.02636719,0.01513672,0.5927734
3651,-59.9375,77.5,-12.6875,-0.1713867,0.2246094,-0.4907227,0.02636719,0.01513672,0.5927734
3655,-60.3125,74.9375,-11.375,-0.175293,0.2246094,-0.4907227,0.02392578,0.01416016,0.5942383
3659,-59.8125,72.1875,-9.5,-0.1635742,0.2285156,-0.4907227,0.02294922,0.01269531,0.5942383
3663,-58.5625,69.125,-8.25,-0.1518555,0.2363281,-0.4790039,0.02294922,0.01269531,0.5942383
3667,-57.4375,65.875,-7,-0.1166992,0.2441406,-0.4716797,0.02148438,0.01025391,0.5952148
3671,-57,63.125,-5.75,-0.1049805,0.2680664,-0.4599609,0.01757813,0.007324219,0.5952148
3675,-56.3125,60.75,-4.875,-0.07373047,0.2758789,-0.4291992,0.01757813,0.007324219,0.5952148
3679,-54.6875,59.25,-4.6875,-0.04638672,0.3071289,-0.3989258,0.01660156,0.007324219,0.5942383
3683,-51.5625,58.1875,-5.3125,-0.01904297,0.3266602,-0.3603516,0.01513672,0.004882813,0.5927734
3687,-48.625,57.375,-6.375,0.01171875,0.3383789,-0.3530273,0.01513672,0.004882813,0.5927734
3691,-44.25,57.3125,-7.875,0.0390625,0.3461914,-0.3300781,0.01269531,0.003417969,0.5942383
3695,-39.375,57.1875,-9.6875,0.05859375,0.3657227,-0.2993164,0.01171875,0.001953125,0.5966797
3699,-34.1875,57.6875,-11.5,0.07421875,0.3657227,-0.2993164,0.01171875,0.001953125,0.5966797
3703,-28.375,58.5625,-13.3125,0.09326172,0.3696289,-0.2802734,0.008789063,0,0.5966797
3707,-22.6875,59.6875,-15.375,0.1166992,0.3813477,-0.2802734,0.006347656,0.001953125,0.5952148
3711,-17.5625,60.8125,-17.6875,0.1245117,0.3774414,-0.2836914,0.006347656,0.001953125,0.5952148
3715,-14.0625,61.5,-19.25,0.1323242,0.3774414,-0.2836914,0.006347656,-0.001464844,0.5981445
3720,-0.0625,53.625,-19,0.1674805,0.3657227,-0.3413086,-0.0004882813,0,0.5996094
3724,1.375,50.75,-17.4375,0.1791992,0.3618164,-0.3413086,-0.002929688,-0.002441406,0.5981445
3728,3.125,47.3125,-15.6875,0.175293,0.3579102,-0.3491211,-0.002929688,-0.002441406,0.5981445
3732,4.5,43.5625,-13.5,0.1831055,0.3579102,-0.3413086,-0.004394531,0,0.5966797
3736,6.875,39.625,-11.8125,0.1870117,0.3696289,-0.3300781,-0.005371094,0,0.5996094
3740,8.5,34.1875,-8.5625,0.1831055,0.3461914,-0.3564453,-0.005371094,0,0.5996094
3744,9.4375,28.5,-5,0.2026367,0.3540039,-0.3300781,-0.006835938,0,0.5981445
3748,10.4375,23.3125,-1.9375,0.2182617,0.3540039,-0.3222656,-0.0078125,0,0.5966797
3752,12.5,17.9375,0.6875,0.2299805,0.3618164,-0.3105469,-0.0078125,0,0.5966797
3756,15.0625,13.1875,2.4375,0.2338867,0.3618164,-0.2836914,-0.0078125,0,0.5981445
3760,19.25,9.125,4.125,0.2416992,0.3579102,-0.2724609,-0.009277344,0.0009765625,0.6005859
3764,24.375,5.625,5.25,0.2416992,0.3500977,-0.2685547,-0.009277344,0.0009765625,0.6005859
3768,29.875,2.375,6.25,0.2456055,0.3422852,-0.2836914,-0.0078125,0.0009765625,0.5981445
3772,34.5625,-0.125,7.125,0.2456055,0.3227539,-0.2993164,-0.009277344,0.0009765625,0.5981445
3776,38.625,-3.3125,8.1875,0.2495117,0.3071289,-0.3144531,-0.009277344,0.0009765625,0.5981445
3780,41.75,-6.25,8.9375,0.2456055,0.2875977,-0.3300781,-0.009277344,0.003417969,0.5996094
3784,44.5625,-9.375,10.125,0.253418,0.2758789,-0.3452148,-0.01025391,0.005859375,0.5996094
3788,46.625,-12.5,10.9375,0.2456055,0.2602539,-0.3642578,-0.01025391,0.005859375,0.5996094
3792,48.6875,-15.75,12.125,0.2573242,0.2324219,-0.3833008,-0.009277344,0.005859375,0.5981445
3796,50.875,-19.6875,12.875,0.2573242,0.2167969,-0.40625,-0.0078125,0.008789063,0.6005859
3800,52.75,-23.75,14,0.2612305,0.1855469,-0.4370117,-0.0078125,0.008789063,0.6005859
3804,54.375,-27.8125,15.4375,0.2651367,0.1699219,-0.4521484,-0.006835938,0.01025391,0.5996094
3808,55.5625,-32.4375,16.375,0.2807617,0.1582031,-0.4868164,-0.006835938,0.01123047,0.6005859
3812,56.3125,-36.625,17.1875,0.284668,0.1503906,-0.4985352,-0.006835938,0.01123047,0.6005859
3816,56.75,-41.125,17.5,0.2963867,0.1386719,-0.5097656,-0.005371094,0.01269531,0.5981445
3820,56.0625,-45.8125,17.375,0.2885742,0.1308594,-0.5214844,-0.002929688,0.01416016,0.5981445
3824,54.9375,-50.625,17.25,0.2807617,0.1230469,-0.5517578,-0.002929688,0.01416016,0.5981445
3829,39.4375,-84.25,21.9375,0.1635742,0.09960938,-0.5825195,0.00390625,0.02050781,0.5966797
3833,40.1875,-87.875,22.4375,0.1479492,0.1035156,-0.574707,0.005371094,0.02050781,0.5966797
3837,43.625,-90.4375,22.125,0.1206055,0.09960938,-0.5517578,0.008789063,0.02197266,0.5952148
3841,46.625,-91.25,22,0.08544922,0.09179688,-0.5673828,0.008789063,0.02197266,0.5952148
3845,48.875,-90.9375,21.9375,0.05859375,0.07617188,-0.574707,0.01269531,0.02197266,0.5966797
3849,50.8125,-90.5,21.3125,0.0390625,0.06054688,-0.6015625,0.01513672,0.02734375,0.5942383
3853,52.8125,-89.25,20.3125,0.0078125,0.04882813,-0.628418,0.01513672,0.02734375,0.5942383
3857,53.6875,-86.125,18.8125,-0.01904297,0.03710938,-0.6591797,0.01757813,0.02880859,0.5952148
3861,53.4375,-83.5,17.6875,-0.05810547,-0.009277344,-0.7011719,0.02001953,0.02978516,0.5952148
3865,53.4375,-82.5625,17.6875,-0.1049805,-0.05615234,-0.7470703,0.02001953,0.02978516,0.5952148
3869,53.9375,-81.5625,18.0625,-0.128418,-0.08740234,-0.7856445,0.02539063,0.03125,0.5942383
3873,54.375,-81.875,18.6875,-0.1479492,-0.1108398,-0.8466797,0.02539063,0.03271484,0.5952148
3877,53.4375,-83.9375,20.3125,-0.1479492,-0.1342773,-0.8774414,0.02539063,0.03271484,0.5952148
3881,53.5,-88.75,22.9375,-0.1518555,-0.1577148,-0.9116211,0.02880859,0.03662109,0.5942383
3885,53.375,-92.4375,26.5,-0.1557617,-0.1772461,-0.9384766,0.03271484,0.03662109,0.5952148
3889,51.875,-100.6875,29.8125,-0.1518555,-0.1811523,-0.980957,0.03271484,0.03662109,0.5952148
3893,49.4375,-108.625,33.375,-0.1479492,-0.1772461,-0.9960938,0.03662109,0.03662109,0.5942383
3897,45.125,-117.6875,36.75,-0.144043,-0.1850586,-1.026855,0.04150391,0.0390625,0.5952148
3901,40.5,-127.125,39.5625,-0.1479492,-0.1616211,-1.03418,0.04150391,0.0390625,0.5952148
3905,33.375,-135.5,42.8125,-0.1518555,-0.1381836,-1.061035,0.04248047,0.04052734,0.5942383
3909,24,-141.4375,46.4375,-0.1713867,-0.1030273,-1.057129,0.04882813,0.04052734,0.5898438
3913,15,-144.875,49.125,-0.1948242,-0.06005859,-1.045898,0.04882813,0.04052734,0.5898438
3917,7.3125,-146.125,51.5,-0.222168,-0.04443359,-1.026855,0.05371094,0.0390625,0.5913086
3921,1.3125,-143.5,53.0625,-0.2568359,-0.01708984,-1.003906,0.06005859,0.0390625,0.5874023
3925,-3,-140.3125,53.625,-0.3037109,-0.001464844,-0.9960938,0.06005859,0.0390625,0.5874023
3929,-4.0625,-136.625,54.375,-0.3310547,0.01367188,-0.9882813,0.06494141,0.03808594,0.5874023
3933,-2.0625,-131.4375,53.4375,-0.3623047,0.03320313,-0.965332,0.06884766,0.03808594,0.5844727
3938,29.4375,-79.0625,34.3125,-0.4404297,-0.1108398,-1.095703,0.08496094,0.03662109,0.5795898
3942,31.75,-75.375,33.1875,-0.4287109,-0.1616211,-1.164551,0.08496094,0.03662109,0.5795898
3946,31.75,-73.4375,32.5,-0.4287109,-0.1733398,-1.214355,0.08886719,0.03515625,0.5805664
3950,31.1875,-73.6875,32.5,-0.4208984,-0.1889648,-1.252441,0.09375,0.03662109,0.5795898
3954,29.5,-75.9375,33.3125,-0.4130859,-0.1967773,-1.271484,0.09375,0.03662109,0.5795898
3958,26.375,-79.875,34.5,-0.4013672,-0.1811523,-1.275391,0.09619141,0.03808594,0.5766602
3962,22.625,-84.125,35.5,-0.3779297,-0.1655273,-1.248535,0.09863281,0.03662109,0.5751953
3966,17.5,-89.5625,36.875,-0.3544922,-0.1459961,-1.229492,0.09863281,0.03662109,0.5751953
3970,12.1875,-91.875,39.75,-0.3427734,-0.1186523,-1.202637,0.1025391,0.03662109,0.5742188
3974,8.375,-98.1875,43,-0.3271484,-0.08740234,-1.168457,0.1074219,0.03808594,0.5727539
3978,5.25,-104.5,46.375,-0.3154297,-0.04833984,-1.141602,0.1074219,0.03808594,0.5727539
3982,2.25,-111.8125,50.0625,-0.2880859,-0.001464844,-1.122559,0.1123047,0.03369141,0.5698242
3986,-0.125,-119.8125,53.375,-0.2646484,0.04492188,-1.091797,0.1147461,0.03369141,0.5673828
3990,-2.0625,-126.0625,57.25,-0.237793,0.08398438,-1.049805,0.1147461,0.03369141,0.5673828
3994,-3.25,-130.75,60.3125,-0.2338867,0.1113281,-1.026855,0.1225586,0.03271484,0.5644531
3998,-3.4375,-134.5625,62.25,-0.2299805,0.1464844,-0.9882813,0.1274414,0.03125,0.5581055
4002,-3,-137.75,63.4375,-0.2338867,0.1464844,-0.9692383,0.1274414,0.03125,0.5581055
4006,-1.8125,-140.3125,64.0625,-0.2338867,0.1347656,-0.9575195,0.1323242,0.02880859,0.5541992
4010,2.25,-141.125,63.625,-0.2456055,0.1035156,-0.9575195,0.1386719,0.02880859,0.5541992
4014,8.75,-140.0625,62.625,-0.2568359,0.07226563,-0.9692383,0.1386719,0.02880859,0.5541992
4018,16.75,-137.75,60.5,-0.2607422,0.04882813,-0.980957,0.1420898,0.02441406,0.5458984
4022,25.6875,-132.6875,57.375,-0.2646484,0.02539063,-1.022949,0.1459961,0.02441406,0.5419922
4026,32.3125,-126.5,53.4375,-0.2568359,-0.005371094,-1.068848,0.1459961,0.02441406,0.5419922
4030,37.5,-120.1875,48.75,-0.2416992,-0.04443359,-1.126465,0.1523438,0.0234375,0.5351563
4034,40.25,-113.25,43.8125,-0.2260742,-0.07568359,-1.172363,0.1547852,0.0234375,0.5297852
4038,40.9375,-106.875,38.6875,-0.2182617,-0.1147461,-1.214355,0.1547852,0.0234375,0.5297852
4042,40.3125,-101,33.5625,-0.206543,-0.1499023,-1.241211,0.1611328,0.0234375,0.5244141
4047,36.9375,-79.75,10.6875,-0.2456055,-0.1225586,-1.19873,0.1723633,0.0234375,0.5073242
4051,37.625,-78.25,9.5625,-0.2529297,-0.1030273,-1.191406,0.1748047,0.0234375,0.5043945
4055,38.125,-78.375,10.0625,-0.2607422,-0.08349609,-1.195313,0.1748047,0.0234375,0.5043945
4059,37.4375,-80.1875,11.9375,-0.2763672,-0.07177734,-1.210449,0.1748047,0.02441406,0.4990234
4063,35.6875,-83.8125,15.25,-0.2880859,-0.04052734,-1.229492,0.1772461,0.02441406,0.4936523
4067,33.6875,-89.6875,19.875,-0.2919922,-0.03271484,-1.241211,0.1772461,0.02441406,0.4936523
4071,31.25,-92.5625,24.9375,-0.3154297,-0.02880859,-1.237305,0.1806641,0.0234375,0.4882813
4075,29.25,-98.375,30.375,-0.3271484,-0.02099609,-1.245117,0.1835938,0.02441406,0.4858398
4079,28.5625,-101.0625,35.375,-0.3388672,-0.01708984,-1.229492,0.1835938,0.02441406,0.4858398
4083,30.4375,-101.5625,39.625,-0.3505859,-0.02099609,-1.218262,0.1835938,0.02441406,0.4819336
4087,34.75,-99.8125,42.75,-0.3544922,-0.04052734,-1.229492,0.1870117,0.0234375,0.4736328
4091,40.3125,-96.6875,45.3125,-0.3544922,-0.07177734,-1.252441,0.1870117,0.0234375,0.4736328
4095,45.6875,-93.5625,47.25,-0.3466797,-0.1030273,-1.294922,0.1884766,0.02197266,0.4726563
4099,49.6875,-88.875,48.25,-0.3349609,-0.1264648,-1.317871,0.1894531,0.02197266,0.4658203
4103,52.8125,-83,47.75,-0.3310547,-0.1616211,-1.378906,0.1894531,0.02197266,0.4658203
4107,55.875,-76.3125,46.4375,-0.3115234,-0.2124023,-1.409668,0.1918945,0.02050781,0.4619141
4111,58.4375,-67.6875,42.9375,-0.2919922,-0.2358398,-1.466797,0.1918945,0.0234375,0.4589844
4115,60.25,-60.1875,38.6875,-0.2646484,-0.2827148,-1.536133,0.1918945,0.0234375,0.4589844
4119,62.125,-52.3125,34.25,-0.2416992,-0.3022461,-1.539551,0.1918945,0.02050781,0.4550781
4123,61.6875,-43.625,29,-0.2143555,-0.3334961,-1.574219,0.1948242,0.01953125,0.4536133
4127,59.5625,-35.25,24,-0.1948242,-0.3530273,-1.589355,0.1948242,0.01953125,0.4536133
4131,55.5625,-28,18.4375,-0.1948242,-0.3530273,-1.616211,0.1933594,0.01953125,0.4482422
4135,50.1875,-22.375,12.4375,-0.190918,-0.3686523,-1.654785,0.1948242,0.01953125,0.4472656
4139,44.75,-16.6875,6.75,-0.1870117,-0.3686523,-1.646973,0.1948242,0.01953125,0.4472656
4143,39,-10.9375,1.875,-0.190918,-0.3491211,-1.643066,0.1948242,0.02050781,0.4472656
4147,33.5,-5.9375,-2.5625,-0.190918,-0.3334961,-1.631836,0.1933594,0.02050781,0.4428711
4151,29,-1.625,-5.8125,-0.1948242,-0.3217773,-1.597168,0.1933594,0.02050781,0.4428711
4156,20.875,5.4375,-5.25,-0.2456055,-0.2983398,-1.616211,0.1918945,0.0234375,0.4418945
4160,18.4375,4.9375,-2.3125,-0.2416992,-0.3022461,-1.62793,0.190918,0.02441406,0.4418945
4164,15.25,5.0625,0.1875,-0.2299805,-0.3139648,-1.62793,0.190918,0.02197266,0.4428711
4168,12.8125,5.4375,2.625,-0.222168,-0.3217773,-1.643066,0.190918,0.02197266,0.4428711
4172,10.875,6.5625,4.125,-0.2143555,-0.3413086,-1.646973,0.190918,0.0234375,0.4428711
4176,8.6875,7.6875,5.5,-0.1987305,-0.3608398,-1.646973,0.1884766,0.02587891,0.4428711
4180,6.6875,8.5,6.625,-0.1948242,-0.3647461,-1.662109,0.1884766,0.02587891,0.4428711
4184,5.5,10.0625,7,-0.1713867,-0.3842773,-1.650879,0.1894531,0.02197266,0.4428711
4188,4.1875,13.5,6.0625,-0.1479492,-0.3881836,-1.616211,0.1918945,0.02441406,0.4428711
4192,2.5,17.1875,3.5625,-0.1245117,-0.3920898,-1.608398,0.1918945,0.02441406,0.4428711
4196,1,21.5625,0.1875,-0.112793,-0.4038086,-1.585449,0.1894531,0.02441406,0.4482422
4200,0.1875,25.875,-3.1875,-0.1088867,-0.4116211,-1.585449,0.190918,0.02441406,0.4428711
4204,-0.5625,30.875,-7.4375,-0.09326172,-0.4155273,-1.578125,0.190918,0.02441406,0.4428711
4208,-2.25,36.125,-11.8125,-0.08935547,-0.4155273,-1.585449,0.190918,0.02587891,0.4443359
4212,-4.6875,41.4375,-16.4375,-0.08544922,-0.4155273,-1.589355,0.190918,0.02441406,0.449707
4216,-8.0625,47.0625,-21.25,-0.09326172,-0.4194336,-1.578125,0.190918,0.02441406,0.449707
4220,-10.625,52.5,-25.8125,-0.1010742,-0.4194336,-1.582031,0.190918,0.02587891,0.4511719
4224,-13.125,57.375,-30.625,-0.1206055,-0.4194336,-1.566406,0.1884766,0.02734375,0.4526367
4228,-14.625,62,-35.0625,-0.1323242,-0.4233398,-1.574219,0.1884766,0.02734375,0.4526367
4232,-15.875,65.5,-39,-0.1479492,-0.4194336,-1.570313,0.1894531,0.02734375,0.4536133
4236,-17.3125,69.25,-42.3125,-0.1635742,-0.4038086,-1.559082,0.1884766,0.02978516,0.4580078
4240,-18.8125,72.3125,-45.0625,-0.1713867,-0.3881836,-1.5625,0.1884766,0.02978516,0.4580078
4244,-20.5,74.75,-47.5,-0.1831055,-0.3764648,-1.555176,0.1870117,0.02978516,0.4604492
4248,-22.5,77.0625,-49.125,-0.1948242,-0.3452148,-1.524414,0.1870117,0.03125,0.4628906
4252,-24.375,79.5625,-50.6875,-0.206543,-0.3217773,-1.516602,0.1870117,0.03125,0.4628906
4256,-25.75,82.75,-51.5,-0.2299805,-0.3022461,-1.489746,0.1845703,0.03662109,0.4697266
4260,-26.0625,86,-52.1875,-0.2495117,-0.2866211,-1.478516,0.1835938,0.03369141,0.4726563
4265,-30.3125,104.375,-47.9375,-0.3193359,-0.2592773,-1.439941,0.1772461,0.0390625,0.4936523
4269,-30.9375,104.8125,-46.1875,-0.3271484,-0.2670898,-1.416992,0.1772461,0.0390625,0.4936523
4273,-31.375,104.625,-44.5625,-0.3232422,-0.2631836,-1.409668,0.1748047,0.0390625,0.4980469
4277,-31.0625,104.3125,-43.375,-0.3193359,-0.2592773,-1.390625,0.1708984,0.04199219,0.503418
4281,-30.375,103.8125,-43.0625,-0.3037109,-0.2553711,-1.378906,0.1708984,0.04199219,0.503418
4285,-29.8125,103.9375,-42.8125,-0.2958984,-0.2514648,-1.355957,0.168457,0.04199219,0.5043945
4289,-29.8125,104.4375,-43.375,-0.2880859,-0.2397461,-1.348145,0.1645508,0.04052734,0.5126953
4293,-30.25,105.625,-44.125,-0.2880859,-0.2397461,-1.329102,0.1645508,0.04052734,0.5126953
4297,-29.9375,106.6875,-45.4375,-0.2841797,-0.2202148,-1.310059,0.1611328,0.04296875,0.5166016
4301,-30.4375,107.25,-46.9375,-0.2919922,-0.2084961,-1.313965,0.1572266,0.04296875,0.5205078
4305,-31.9375,107.9375,-48.125,-0.2802734,-0.2202148,-1.283203,0.1572266,0.04296875,0.5205078
4309,-31.5,109.9375,-48.4375,-0.2841797,-0.2241211,-1.275391,0.1533203,0.04443359,0.5288086
4313,-31.875,111.9375,-49.4375,-0.2841797,-0.2006836,-1.279297,0.1499023,0.04199219,0.5351563
4317,-32.9375,114.6875,-51,-0.2919922,-0.1889648,-1.268066,0.1499023,0.04199219,0.5351563
4321,-34.625,117.8125,-52.75,-0.2958984,-0.1772461,-1.26416,0.1474609,0.04296875,0.5380859
4325,-35.75,121.0625,-54.3125,-0.3037109,-0.1772461,-1.256348,0.1411133,0.04589844,0.5444336
4329,-35.8125,124.6875,-55.75,-0.3037109,-0.1733398,-1.225586,0.1411133,0.04589844,0.5444336
4333,-35.8125,128.1875,-56.5625,-0.3154297,-0.1733398,-1.218262,0.1362305,0.04589844,0.5488281
4337,-36.375,130.875,-57.625,-0.3232422,-0.1655273,-1.210449,0.128418,0.04833984,0.5541992
4341,-37.0625,133.3125,-58.25,-0.3310547,-0.1577148,-1.202637,0.128418,0.04833984,0.5541992
4345,-37.9375,134.5,-58.375,-0.3310547,-0.1538086,-1.183594,0.1259766,0.04736328,0.5581055
4349,-38.6875,134.5,-57.3125,-0.3310547,-0.1577148,-1.1875,0.1171875,0.04833984,0.5605469
4353,-40.0625,133.5625,-55.9375,-0.3349609,-0.1577148,-1.175781,0.1171875,0.04833984,0.5605469
4357,-42,131.9375,-54.3125,-0.3310547,-0.1538086,-1.156738,0.1123047,0.04833984,0.5698242
4361,-44.1875,129.125,-52.5,-0.3310547,-0.1577148,-1.145508,0.1074219,0.04736328,0.5698242
4365,-46.6875,125.5,-50.4375,-0.3271484,-0.1499023,-1.137695,0.1074219,0.04736328,0.5698242
4369,-48.9375,121.75,-48.5,-0.3271484,-0.1459961,-1.118652,0.1025391,0.04736328,0.5742188
4374,-72.1875,91.5625,-29.375,-0.3232422,-0.09521484,-1.064941,0.08105469,0.04589844,0.5834961
4378,-75.3125,88.8125,-26.8125,-0.3271484,-0.09130859,-1.053711,0.08007813,0.04296875,0.5844727
4382,-77.75,85.8125,-24.125,-0.3271484,-0.07568359,-1.022949,0.08007813,0.04296875,0.5844727
4386,-78.6875,83.375,-22,-0.3310547,-0.05615234,-1.003906,0.07519531,0.04296875,0.5844727
4390,-78.3125,81.1875,-20,-0.3388672,-0.02880859,-0.965332,0.06982422,0.04052734,0.5859375
4394,-78.1875,78.625,-16.9375,-0.3232422,-0.03662109,-0.965332,0.06982422,0.04052734,0.5859375
4398,-78.8125,77,-14.375,-0.3115234,-0.02099609,-0.9194336,0.06640625,0.03808594,0.5888672
4402,-79,75.875,-12.5625,-0.3037109,0.005859375,-0.8813477,0.06494141,0.03515625,0.5898438
4406,-77.3125,75.1875,-11.5,-0.2919922,0.02148438,-0.8583984,0.06494141,0.03515625,0.5898438
4410,-74.875,75.1875,-10.5625,-0.2880859,0.02929688,-0.8198242,0.06005859,0.03271484,0.5913086
4414,-72.875,75.625,-9.75,-0.2763672,0.03710938,-0.815918,0.05761719,0.03125,0.5898438
4418,-70.4375,76.25,-9.5,-0.2724609,0.05273438,-0.8046875,0.05761719,0.03125,0.5898438
4422,-68.6875,75.625,-9.25,-0.2685547,0.03710938,-0.8125,0.05517578,0.02880859,0.5898438
4426,-68.9375,74.8125,-7.5625,-0.2607422,0.04101563,-0.8046875,0.05273438,0.02587891,0.5898438
4430,-70.0625,73.4375,-5.625,-0.2529297,0.04882813,-0.8046875,0.05273438,0.02587891,0.5898438
4434,-70.8125,71.375,-3.5625,-0.2529297,0.04882813,-0.8125,0.04785156,0.0234375,0.5942383
4438,-72.0625,68.4375,-1.25,-0.2529297,0.05664063,-0.8125,0.04638672,0.02197266,0.5913086
4442,-73.4375,65.375,1.5625,-0.2456055,0.06054688,-0.8085938,0.04638672,0.02197266,0.5913086
4446,-74.9375,61.5,4.9375,-0.237793,0.07617188,-0.8007813,0.04394531,0.01953125,0.5966797
4450,-75.875,57.4375,7.875,-0.2416992,0.09179688,-0.777832,0.04248047,0.01806641,0.5913086
4454,-77,52.0625,11.9375,-0.2338867,0.08789063,-0.7890625,0.04248047,0.01806641,0.5913086
4458,-78.875,46.25,16.8125,-0.2260742,0.09570313,-0.7700195,0.04003906,0.01513672,0.5927734
4462,-81,40.75,21.4375,-0.206543,0.1113281,-0.7431641,0.0390625,0.01269531,0.5913086
4466,-80.9375,35.3125,25.5,-0.1948242,0.1308594,-0.7167969,0.0390625,0.01269531,0.5913086
4470,-79.375,30.125,29.4375,-0.1674805,0.1503906,-0.6821289,0.03662109,0.01025391,0.5927734
4474,-77.625,26,31.6875,-0.1479492,0.1699219,-0.6552734,0.03662109,0.005859375,0.5913086
4478,-75.375,23.125,33.75,-0.1166992,0.1933594,-0.6323242,0.03662109,0.005859375,0.5913086
4483,-53.1875,26.6875,30.0625,0.03125,0.2680664,-0.4985352,0.03369141,-0.002441406,0.5898438
4487,-47.5,29.25,27.3125,0.04296875,0.2719727,-0.4907227,0.03271484,-0.005371094,0.5898438
4491,-41.375,31.25,24.4375,0.0625,0.2719727,-0.4755859,0.03125,-0.009277344,0.5888672
4495,-36.375,33,21.5,0.0703125,0.2719727,-0.4868164,0.03125,-0.009277344,0.5888672
4499,-31.3125,34.5,18.8125,0.0703125,0.2758789,-0.4868164,0.03125,-0.009277344,0.5898438
4503,-26.6875,34.8125,16.4375,0.05859375,0.2680664,-0.5058594,0.03027344,-0.01074219,0.5913086
4507,-23.1875,35.5625,15.0625,0.05859375,0.2641602,-0.5288086,0.03027344,-0.01074219,0.5913086
4511,-19.75,36,13.1875,0.05859375,0.2680664,-0.5327148,0.02880859,-0.01074219,0.5927734
4515,-17,35.625,11.8125,0.0546875,0.2680664,-0.5517578,0.03027344,-0.01171875,0.5888672
4519,-14.25,34.5,10.875,0.0546875,0.2680664,-0.5712891,0.03027344,-0.01171875,0.5888672
4523,-13.0625,33.625,10.5625,0.046875,0.2680664,-0.590332,0.02783203,-0.01171875,0.5913086
4527,-11.5625,32.6875,10.1875,0.046875,0.2680664,-0.5942383,0.02539063,-0.01318359,0.5898438
4531,-9.375,31.9375,9.5,0.05078125,0.2680664,-0.5786133,0.02539063,-0.01318359,0.5898438
4535,-6.3125,30.25,8.5625,0.0625,0.2797852,-0.5712891,0.02392578,-0.01464844,0.5888672
4539,-2.8125,29.1875,8,0.078125,0.2719727,-0.574707,0.02539063,-0.01611328,0.5898438
4543,0.875,28,6.8125,0.112793,0.2758789,-0.5595703,0.02539063,-0.01611328,0.5898438
4547,4.375,28,5.5625,0.1401367,0.2875977,-0.5366211,0.02539063,-0.01318359,0.5898438
4551,7.1875,28.625,3.1875,0.1557617,0.3071289,-0.5288086,0.02294922,-0.01318359,0.5898438
4555,10.5625,29.9375,0.1875,0.1713867,0.3071289,-0.5136719,0.02294922,-0.01318359,0.5898438
4559,13.5,32.3125,-2.75,0.1831055,0.3032227,-0.5136719,0.02148438,-0.01464844,0.5888672
4563,16.875,34.625,-6,0.1948242,0.2875977,-0.5175781,0.02001953,-0.01464844,0.5913086
4567,19.8125,36.75,-8.8125,0.1987305,0.2875977,-0.5288086,0.02001953,-0.01464844,0.5913086
4571,22.625,38.875,-11.625,0.2143555,0.2758789,-0.5175781,0.02001953,-0.01318359,0.5898438
4575,25.0625,40.6875,-14.375,0.2299805,0.2797852,-0.5288086,0.01904297,-0.01171875,0.5913086
4579,27.3125,41.9375,-16.5625,0.2299805,0.2641602,-0.5366211,0.01904297,-0.01171875,0.5913086
4583,28.625,42.8125,-18.25,0.2338867,0.2563477,-0.5405273,0.01660156,-0.01171875,0.5898438
4587,29.125,42.6875,-19.375,0.2299805,0.2480469,-0.5673828,0.01660156,-0.01318359,0.5898438
4592,23.375,18.8125,-9.6875,0.2104492,0.1855469,-0.6474609,0.01171875,-0.0078125,0.5942383
4596,21.6875,13.1875,-6.4375,0.206543,0.1816406,-0.6591797,0.01171875,-0.0078125,0.5942383
4600,19.1875,7.25,-3.0625,0.2182617,0.1855469,-0.6782227,0.01171875,-0.00390625,0.5927734
4604,16,1.4375,0.5625,0.2143555,0.1894531,-0.6591797,0.01171875,-0.005371094,0.5927734
4608,13.0625,-4.25,4.125,0.222168,0.1933594,-0.6591797,0.01171875,-0.005371094,0.5927734
4612,9.8125,-9.9375,7.4375,0.2299805,0.1972656,-0.6362305,0.01171875,-0.00390625,0.5927734
4616,7.375,-14.625,10.5625,0.2338867,0.2128906,-0.6171875,0.01171875,-0.00390625,0.5942383
4620,5.75,-18.875,13,0.2495117,0.2167969,-0.5976563,0.01171875,-0.00390625,0.5942383
4624,5.4375,-23.3125,15.0625,0.2495117,0.2167969,-0.5825195,0.01171875,-0.005371094,0.5927734
4628,5.9375,-26.75,16.8125,0.2495117,0.2207031,-0.574707,0.01269531,-0.00390625,0.5942383
4632,7.0625,-29.9375,17.8125,0.2573242,0.2128906,-0.5595703,0.01269531,-0.00390625,0.5942383
4636,8.0625,-32.8125,18.375,0.2729492,0.2167969,-0.5478516,0.01660156,-0.005371094,0.5927734
4640,8.9375,-35.1875,18.625,0.269043,0.2167969,-0.5366211,0.01269531,-0.005371094,0.5942383
4644,10.25,-37.25,18.0625,0.2807617,0.2128906,-0.5214844,0.01269531,-0.005371094,0.5942383
4648,12.4375,-38.4375,17,0.284668,0.2050781,-0.5214844,0.01757813,-0.005371094,0.5927734
4652,14.5625,-39.375,15.625,0.2729492,0.1933594,-0.5175781,0.01904297,-0.00390625,0.5927734
4656,17.25,-40.0625,14.125,0.2612305,0.1738281,-0.5249023,0.01904297,-0.00390625,0.5927734
4660,19.9375,-41.5625,12.875,0.2456055,0.1503906,-0.5444336,0.01757813,-0.002441406,0.5927734
4664,22.375,-44.3125,11.875,0.237793,0.1347656,-0.5864258,0.01904297,-0.005371094,0.5942383
4668,23.375,-47.125,10.8125,0.2299805,0.1347656,-0.609375,0.01904297,-0.005371094,0.5942383
4672,24.25,-50,10.1875,0.2143555,0.1191406,-0.628418,0.02148438,-0.001464844,0.5927734
4676,24.3125,-52.1875,9.5625,0.206543,0.1113281,-0.6362305,0.02392578,-0.002441406,0.5913086
4680,24,-54.25,8.875,0.190918,0.1035156,-0.6669922,0.02392578,-0.002441406,0.5913086
4684,21.625,-57.25,8.75,0.175293,0.1035156,-0.6899414,0.02539063,0,0.5913086
4688,18.6875,-61.0625,8.8125,0.1674805,0.1035156,-0.7167969,0.02783203,-0.001464844,0.5898438
4692,14.5,-65.625,9.1875,0.144043,0.1035156,-0.7280273,0.02783203,-0.001464844,0.5898438
4696,9.8125,-70.375,10.1875,0.1245117,0.1074219,-0.7358398,0.02636719,0,0.5913086
4701,-9.0625,-91.25,15.1875,0.03515625,0.2089844,-0.5673828,0.0390625,0,0.5888672
4705,-8.1875,-91.9375,14.9375,0.01171875,0.2167969,-0.5327148,0.04248047,-0.001464844,0.5874023
4709,-6.125,-91.6875,14.1875,-0.007324219,0.2207031,-0.5058594,0.04248047,-0.001464844,0.5874023
4713,-1.75,-90.75,13,-0.03466797,0.2089844,-0.4829102,0.04394531,0,0.5888672
4717,3.75,-90.5,11.9375,-0.06591797,0.1855469,-0.4716797,0.04785156,-0.002441406,0.5874023
4721,10.75,-88.875,10.625,-0.09326172,0.1777344,-0.4716797,0.04785156,-0.002441406,0.5874023
4725,17.6875,-85.9375,9.25,-0.1166992,0.1425781,-0.4790039,0.05029297,-0.001464844,0.5844727
4729,24.5625,-84.3125,8.4375,-0.1362305,0.1191406,-0.5136719,0.05517578,-0.002441406,0.5874023
4733,31.6875,-83.5625,7.25,-0.1401367,0.09179688,-0.5327148,0.05517578,-0.002441406,0.5874023
4737,39.125,-82.875,4.75,-0.1557617,0.08789063,-0.5673828,0.05517578,0,0.5874023
4741,46.5625,-82.5,1.9375,-0.1518555,0.06445313,-0.609375,0.05761719,0,0.5834961
4745,52.5625,-81.3125,-0.6875,-0.1557617,0.04101563,-0.6591797,0.05761719,0,0.5834961
4749,56.75,-79,-3.1875,-0.1635742,0.02148438,-0.7050781,0.06152344,0.001953125,0.5834961
4753,59.3125,-75.5,-6.1875,-0.1713867,0.001953125,-0.7587891,0.06396484,0.003417969,0.5820313
4757,59.6875,-72.25,-8.625,-0.1870117,-0.02490234,-0.815918,0.06396484,0.003417969,0.5820313
4761,57.4375,-68.6875,-10.8125,-0.2299805,-0.04833984,-0.8696289,0.06640625,0.007324219,0.5805664
4765,53.4375,-65.5625,-12,-0.2685547,-0.07568359,-0.9384766,0.06884766,0.005859375,0.5834961
4769,48.4375,-62.875,-12.75,-0.3076172,-0.09130859,-0.9770508,0.06884766,0.005859375,0.5834961
4773,44.4375,-61.1875,-12.375,-0.3388672,-0.1030273,-1.019043,0.06982422,0.008789063,0.5834961
4777,40.0625,-61.5625,-10.5625,-0.3623047,-0.1225586,-1.064941,0.07519531,0.01025391,0.5834961
4781,34.5,-64.625,-6.6875,-0.3818359,-0.1264648,-1.114746,0.07519531,0.01025391,0.5834961
4785,27,-70.125,-1.9375,-0.3857422,-0.1225586,-1.149414,0.07519531,0.01269531,0.5834961
4789,18.9375,-76.5,3.0625,-0.3779297,-0.09521484,-1.141602,0.08007813,0.01269531,0.5805664
4793,11.6875,-82.4375,7.4375,-0.3623047,-0.07177734,-1.099609,0.08007813,0.01269531,0.5805664
4797,6.9375,-86.8125,11.0625,-0.3349609,-0.04052734,-1.030273,0.08105469,0.01269531,0.5805664
4801,3,-92.1875,13.5625,-0.3115234,-0.005371094,-0.9692383,0.08740234,0.01269531,0.5795898
4805,0.375,-91.375,14.9375,-0.2880859,0.02929688,-0.8964844,0.08740234,0.01269531,0.5795898
4810,33.8125,-90.8125,9.6875,-0.2338867,0.09570313,-0.7509766,0.1010742,0.01269531,0.578125
4814,42.375,-90.5625,6.6875,-0.2338867,0.08007813,-0.8007813,0.1035156,0.01416016,0.5727539
4818,48.5625,-90.1875,4.3125,-0.222168,0.06054688,-0.8388672,0.1088867,0.01416016,0.5727539
4822,52.5625,-87.375,2.25,-0.2260742,0.02929688,-0.8774414,0.1088867,0.01416016,0.5727539
4826,54.5,-86.625,0.5625,-0.237793,-0.005371094,-0.9575195,0.1123047,0.01513672,0.5712891
4830,53.6875,-85.25,0,-0.2724609,-0.03662109,-1.01123,0.1147461,0.01513672,0.5688477
4834,52.1875,-82.875,-1.6875,-0.2958984,-0.04052734,-1.049805,0.1147461,0.01513672,0.5688477
4838,50.4375,-82.6875,-2.1875,-0.3232422,-0.07177734,-1.160645,0.1210938,0.01513672,0.565918
4842,46.5,-85.5625,0.9375,-0.3388672,-0.09912109,-1.256348,0.1235352,0.01806641,0.5634766
4846,40,-89,4.875,-0.3623047,-0.1147461,-1.29834,0.1235352,0.01806641,0.5634766
4850,31.4375,-93.3125,8.75,-0.3857422,-0.1303711,-1.333008,0.125,0.01660156,0.559082
4854,23,-101.0625,12.375,-0.4130859,-0.1499023,-1.378906,0.1308594,0.01806641,0.5581055
4858,16.625,-108.75,16.875,-0.4208984,-0.1694336,-1.413574,0.1308594,0.01806641,0.5581055
4862,10,-116.625,22.1875,-0.4169922,-0.1577148,-1.420898,0.137207,0.01953125,0.5541992
4866,2.9375,-123.875,27.1875,-0.4052734,-0.1342773,-1.405762,0.1386719,0.01806641,0.5498047
4870,-3.9375,-131.75,31.5625,-0.3779297,-0.09521484,-1.378906,0.1386719,0.01806641,0.5498047
4874,-11,-139.125,34.9375,-0.3583984,-0.06396484,-1.329102,0.1459961,0.01660156,0.5458984
4878,-17.5,-145.3125,37.5,-0.3310547,-0.03271484,-1.237305,0.1459961,0.01416016,0.5405273
4882,-21.4375,-149.3125,38.625,-0.3037109,0.009765625,-1.156738,0.1459961,0.01416016,0.5405273
4886,-22.875,-149.875,38,-0.2724609,0.04882813,-1.053711,0.1523438,0.01513672,0.5341797
4890,-20.9375,-147.25,35.6875,-0.2495117,0.1074219,-0.965332,0.1586914,0.01025391,0.5288086
4894,-15,-140.9375,31.5625,-0.2338867,0.1464844,-0.8618164,0.1586914,0.01025391,0.5288086
4898,-5.0625,-130.0625,24.75,-0.2260742,0.1738281,-0.8007813,0.1621094,0.01123047,0.5205078
4902,5.6875,-117.8125,17.3125,-0.2260742,0.1894531,-0.7739258,0.1669922,0.01123047,0.5166016
4906,17.375,-106.1875,9.3125,-0.2260742,0.1699219,-0.7817383,0.1669922,0.01123047,0.5166016
4910,28,-94.3125,1.5,-0.2299805,0.1660156,-0.7890625,0.1708984,0.008789063,0.5097656
4914,39.1875,-82.25,-7.25,-0.2416992,0.1425781,-0.796875,0.1733398,0.01025391,0.5087891
4919,74.6875,-35.375,-28,-0.3779297,-0.1069336,-1.225586,0.1782227,0.01806641,0.4897461
4923,74.375,-36,-26.1875,-0.3935547,-0.1577148,-1.29834,0.1782227,0.01806641,0.4897461
4927,71.6875,-39.375,-22.625,-0.4091797,-0.1850586,-1.352051,0.1821289,0.02050781,0.4873047
4931,67.6875,-44.75,-17.625,-0.4130859,-0.2045898,-1.405762,0.1796875,0.0234375,0.4819336
4935,62.6875,-51.25,-11.6875,-0.4169922,-0.2163086,-1.447754,0.1796875,0.0234375,0.4819336
4939,56.5625,-58.8125,-5.3125,-0.4052734,-0.2202148,-1.470703,0.1835938,0.0234375,0.4765625
4943,49.6875,-66.125,0.4375,-0.3935547,-0.2084961,-1.455566,0.1796875,0.02587891,0.4750977
4947,42.5625,-74.25,6.5,-0.3896484,-0.2045898,-1.455566,0.1796875,0.02587891,0.4750977
4951,35.5625,-83,12.375,-0.3857422,-0.2006836,-1.455566,0.1835938,0.02587891,0.4697266
4955,28.8125,-91,18.5,-0.3701172,-0.1850586,-1.455566,0.1845703,0.0234375,0.4643555
4959,22.6875,-100.5625,23.8125,-0.3544922,-0.1733398,-1.420898,0.1845703,0.0234375,0.4643555
4963,17,-106.625,28.1875,-0.3427734,-0.1342773,-1.378906,0.1860352,0.0234375,0.4619141
4967,12.4375,-109.0625,31.125,-0.3310547,-0.1030273,-1.321289,0.1845703,0.0234375,0.456543
4971,11,-108.125,32.5,-0.3310547,-0.08349609,-1.256348,0.1845703,0.0234375,0.456543
4975,13.0625,-103.4375,32.1875,-0.3193359,-0.06396484,-1.218262,0.1860352,0.0234375,0.4511719
4979,18.625,-96.25,30.4375,-0.2919922,-0.06005859,-1.172363,0.1860352,0.02050781,0.4472656
4983,26,-87.0625,27.125,-0.2646484,-0.05224609,-1.133789,0.1860352,0.02050781,0.4472656
4987,34.9375,-74.5,21.75,-0.2416992,-0.05224609,-1.099609,0.1870117,0.02050781,0.4458008
4991,44.9375,-61.125,14.3125,-0.2026367,-0.05615234,-1.087891,0.1884766,0.02050781,0.4389648
4995,55.6875,-45.9375,5.25,-0.175293,-0.07568359,-1.080078,0.1884766,0.02050781,0.4389648
4999,65.6875,-31.125,-4.5,-0.1479492,-0.1108398,-1.07666,0.1870117,0.02050781,0.4365234
5003,74.375,-17.5,-14.0625,-0.1401367,-0.1381836,-1.11084,0.1870117,0.02197266,0.4365234
5007,81.9375,-4.375,-22.8125,-0.1362305,-0.1811523,-1.160645,0.1870117,0.02197266,0.4365234
5011,88.375,7.6875,-28.375,-0.1479492,-0.2006836,-1.195313,0.1860352,0.0234375,0.4365234
5015,92.125,19.5625,-32.3125,-0.1362305,-0.2358398,-1.256348,0.1821289,0.02587891,0.4326172
5019,93.75,27.5,-35.9375,-0.1987305,-0.2397461,-1.336914,0.1821289,0.02587891,0.4326172
5023,96.3125,28.625,-44.6875,-0.2143555,-0.2202148,-1.401855,0.1806641,0.02734375,0.4335938
5028,67.9375,9.875,-20.75,-0.3388672,-0.4155273,-1.635254,0.1748047,0.03515625,0.4335938
5032,58.875,2.5625,-14.6875,-0.3271484,-0.4077148,-1.646973,0.1723633,0.03808594,0.4350586
5036,50.8125,-3.6875,-9.6875,-0.3193359,-0.4155273,-1.643066,0.1723633,0.03808594,0.4350586
5040,42.0625,-10.8125,-4.8125,-0.3076172,-0.4194336,-1.63916,0.1708984,0.03808594,0.4335938
5044,33.5,-17.25,-0.0625,-0.3115234,-0.4194336,-1.646973,0.1708984,0.0390625,0.4350586
5048,25.1875,-22.6875,4.1875,-0.3037109,-0.4077148,-1.631836,0.1708984,0.0390625,0.4350586
5052,17.125,-27.125,7.4375,-0.3076172,-0.3803711,-1.612305,0.1723633,0.0390625,0.4326172
5056,9.8125,-29.8125,9.375,-0.3115234,-0.3491211,-1.574219,0.1708984,0.0390625,0.4311523
5060,3.125,-30.5625,10.6875,-0.3115234,-0.3217773,-1.547363,0.1708984,0.0390625,0.4311523
5064,-2.25,-29.875,11.125,-0.3115234,-0.2905273,-1.501465,0.1694336,0.03808594,0.4296875
5068,-6.625,-27.9375,11.125,-0.3310547,-0.2592773,-1.466797,0.1708984,0.03662109,0.4311523
5072,-10.125,-24.625,10.75,-0.3505859,-0.2397461,-1.432617,0.1708984,0.03662109,0.4311523
5076,-12.5625,-21.25,10.5,-0.3701172,-0.2202148,-1.405762,0.1723633,0.03808594,0.4296875
5080,-14.3125,-17.0625,10.125,-0.3857422,-0.2006836,-1.382813,0.1723633,0.03662109,0.4282227
5084,-14.25,-13.125,9.875,-0.4091797,-0.1733398,-1.359863,0.1723633,0.03662109,0.4282227
5088,-13.625,-8.6875,9.5625,-0.4287109,-0.1577148,-1.336914,0.1723633,0.03662109,0.4311523
5092,-11.9375,-3.125,9,-0.4248047,-0.1420898,-1.302246,0.1733398,0.03662109,0.4272461
5096,-10,3.0625,8,-0.4287109,-0.1225586,-1.275391,0.1733398,0.03662109,0.4272461
5100,-7.25,10.1875,6.5,-0.4248047,-0.1069336,-1.245117,0.1723633,0.03369141,0.4296875
5104,-4.5625,17.125,4.9375,-0.4130859,-0.1069336,-1.222168,0.1723633,0.03662109,0.4311523
5108,-1.625,24.125,3.0625,-0.4091797,-0.1108398,-1.214355,0.1723633,0.03662109,0.4311523
5112,1.3125,31.125,1.5625,-0.4013672,-0.1069336,-1.195313,0.1708984,0.03271484,0.4282227
5116,3.5625,36.8125,-0.125,-0.3818359,-0.1147461,-1.183594,0.1723633,0.03369141,0.4311523
5120,4.9375,42.1875,-1.8125,-0.3857422,-0.1225586,-1.183594,0.1723633,0.03369141,0.4311523
5124,5.375,45.9375,-2.8125,-0.3740234,-0.1342773,-1.191406,0.1708984,0.03515625,0.4326172
5128,5.875,49.125,-3.5,-0.3701172,-0.1420898,-1.179688,0.1723633,0.03515625,0.4335938
5132,6,51.625,-4,-0.3583984,-0.1459961,-1.175781,0.1723633,0.03515625,0.4335938
5137,-2.4375,52.6875,-6,-0.3193359,-0.1967773,-1.179688,0.168457,0.03662109,0.4379883
5141,-5.375,51.75,-6.375,-0.3154297,-0.2045898,-1.172363,0.168457,0.03808594,0.4379883
5145,-8.4375,50.9375,-6.75,-0.2998047,-0.2163086,-1.152832,0.168457,0.03808594,0.4404297
5149,-11.5,49.6875,-6.875,-0.2919922,-0.2084961,-1.149414,0.168457,0.03808594,0.4404297
5153,-14.4375,48.5,-7.4375,-0.2958984,-0.2045898,-1.133789,0.1669922,0.03662109,0.4428711
5157,-16.9375,47.3125,-7.4375,-0.2998047,-0.1967773,-1.11084,0.1660156,0.03808594,0.4443359
5161,-19.1875,46.25,-8,-0.3037109,-0.1850586,-1.106934,0.1660156,0.03808594,0.4443359
5165,-21.3125,45.3125,-7.8125,-0.3037109,-0.1733398,-1.091797,0.1669922,0.0390625,0.4443359
5169,-23.375,44.0625,-7.5,-0.3076172,-0.1655273,-1.072754,0.1645508,0.03662109,0.4472656
5173,-24.9375,43.25,-7.1875,-0.3037109,-0.1655273,-1.053711,0.1645508,0.03662109,0.4472656
5177,-26.0625,43,-6.6875,-0.3037109,-0.1459961,-1.03418,0.1669922,0.03662109,0.4458008
5181,-27,42.8125,-6.1875,-0.3076172,-0.1381836,-1.015137,0.1660156,0.03808594,0.449707
5185,-27.875,42.5,-6.0625,-0.3076172,-0.1264648,-1.01123,0.1660156,0.03808594,0.449707
5189,-27.625,42.4375,-5.375,-0.3037109,-0.1225586,-0.9882813,0.1660156,0.03808594,0.449707
5193,-27,42.25,-4.8125,-0.3076172,-0.1108398,-0.9692383,0.1669922,0.03808594,0.4536133
5197,-25.9375,42,-4.5625,-0.2958984,-0.1186523,-0.9462891,0.1669922,0.03808594,0.4536133
5201,-24.125,42.25,-4.25,-0.2958984,-0.1069336,-0.9423828,0.1660156,0.03808594,0.4536133
5205,-22.75,42.3125,-4.1875,-0.2958984,-0.1069336,-0.9384766,0.1645508,0.03662109,0.456543
5209,-21.25,42.375,-4,-0.2841797,-0.1069336,-0.9384766,0.1645508,0.03662109,0.456543
5213,-20.4375,42.375,-3.9375,-0.2802734,-0.1030273,-0.9311523,0.1660156,0.03515625,0.4580078
5217,-19.8125,42.6875,-4,-0.2646484,-0.1069336,-0.9272461,0.1635742,0.03662109,0.4580078
5221,-19.375,42.625,-4.4375,-0.2724609,-0.1108398,-0.9272461,0.1635742,0.03662109,0.4580078
5225,-18.5,43.25,-4.875,-0.2646484,-0.1186523,-0.9345703,0.1645508,0.0390625,0.4580078
5229,-18.0625,42.8125,-5.375,-0.2724609,-0.1264648,-0.9501953,0.1660156,0.03808594,0.4619141
5233,-18.3125,42,-5.875,-0.2724609,-0.1381836,-0.9692383,0.1660156,0.03808594,0.4619141
5237,-19,40.875,-5.625,-0.2607422,-0.1499023,-0.9882813,0.1645508,0.03662109,0.4619141
5241,-19.875,39.3125,-5.875,-0.2607422,-0.1538086,-0.9882813,0.1645508,0.03808594,0.4643555
5246,-28.5,32.875,-9.125,-0.2529297,-0.1303711,-0.9541016,0.1635742,0.03515625,0.4682617
5250,-29.75,30.875,-8.25,-0.2646484,-0.1616211,-0.980957,0.1635742,0.03515625,0.4682617
5254,-31.6875,28.375,-6.3125,-0.2456055,-0.1616211,-0.9692383,0.1621094,0.0390625,0.4697266
5258,-34.125,27.3125,-5.0625,-0.2529297,-0.1459961,-0.9614258,0.1611328,0.03515625,0.4697266
5262,-35.375,26.1875,-4.125,-0.2529297,-0.1186523,-0.9384766,0.1611328,0.03515625,0.4697266
5266,-36.3125,24.9375,-3.75,-0.2568359,-0.1147461,-0.9384766,0.1621094,0.03662109,0.4726563
5270,-37.125,24.1875,-2.625,-0.2607422,-0.1108398,-0.9384766,0.1611328,0.03662109,0.4736328
5274,-37.6875,22.9375,-1.3125,-0.2607422,-0.1186523,-0.9272461,0.1611328,0.03662109,0.4736328
5278,-37.75,21.375,0,-0.2607422,-0.1147461,-0.9311523,0.1621094,0.03369141,0.4750977
5282,-37.5625,19.1875,1.0625,-0.2529297,-0.1147461,-0.9311523,0.1621094,0.03369141,0.4750977
5286,-37.25,16.9375,1.8125,-0.2456055,-0.1108398,-0.9311523,0.1621094,0.03369141,0.4750977
5290,-36.75,15.25,2.25,-0.2338867,-0.1225586,-0.9384766,0.1645508,0.03515625,0.4765625
5294,-35.875,14.625,1.75,-0.2338867,-0.1069336,-0.9155273,0.1621094,0.03369141,0.4765625
5298,-36.125,13.5625,2,-0.2260742,-0.1264648,-0.9541016,0.1621094,0.03369141,0.4765625
5302,-37.4375,11.8125,2.6875,-0.2143555,-0.1342773,-0.9575195,0.1621094,0.03271484,0.4765625
5306,-39.4375,10.875,3,-0.2143555,-0.1264648,-0.9575195,0.1635742,0.03271484,0.4790039
5310,-40.1875,10.0625,2.3125,-0.2182617,-0.1147461,-0.9692383,0.1635742,0.03271484,0.4790039
5314,-40.75,9,2,-0.2143555,-0.1108398,-0.9575195,0.1621094,0.02978516,0.4790039
5318,-41.625,8.3125,1.5,-0.2182617,-0.1030273,-0.9541016,0.1645508,0.02978516,0.4804688
5322,-41.75,7.5,0.8125,-0.2143555,-0.09521484,-0.9423828,0.1645508,0.02978516,0.4804688
