Time (s),Gyroscope X (deg/s),Gyroscope Y (deg/s),Gyroscope Z (deg/s),Accelerometer X (g),Accelerometer Y (g),Accelerometer Z (g),Magnetometer X (uT),Magnetometer Y (uT),Magnetometer Z (uT),Barometer (hPa)
0.000000000,-0.2135104,-0.03920121,0.1772025,-0.3724039,0.4286759,0.7969519,6.876321,8.362206,-59.28261,996.41
0.004994869,0.1583184,-0.2773951,-0.06765192,-0.3661498,0.4335623,0.7892707,6.858241,9.398886,-59.74727,996.41
0.007492065,0.0963066,-0.2177486,0.1159699,-0.3696285,0.4375,0.798798,6.858241,9.398886,-59.74727,996.41
0.012485981,-0.2754486,-0.03897135,0.1159548,-0.3703491,0.4228556,0.7941263,6.858241,9.398886,-59.74727,996.41
0.014983177,-0.02751369,-0.09851841,0.05471813,-0.3751216,0.4164095,0.7917868,6.858241,9.398886,-59.74727,996.41
0.019977093,0.09640831,-0.03891593,0.05470298,-0.3685642,0.4326809,0.7997871,6.858241,9.398886,-59.74727,996.41
0.022474289,-0.02754616,-0.09846301,-0.006514403,-0.3627779,0.4366313,0.7954565,6.858241,9.398886,-59.74727,996.41
0.027468681,0.09643427,-0.1579792,-0.1289684,-0.3699723,0.4291943,0.7955138,6.858241,9.398886,-59.74727,996.41
0.032463074,-0.08945419,-0.03878003,0.2994756,-0.3666041,0.4322119,0.7978786,6.858241,9.398886,-59.74727,996.41
0.034960270,0.0344981,-0.09832714,0.1157809,-0.3695548,0.4330679,0.794053,6.858241,9.398886,-59.74727,996.41
0.039954185,0.03445695,-0.09822795,0.05454641,-0.37242,0.4296658,0.7983778,6.858241,9.398886,-59.74727,996.41
0.042451859,0.03444613,-0.1577564,0.1157295,-0.3690557,0.4326253,0.7964441,6.858241,9.398886,-59.74727,996.4083
0.047445774,-0.02744027,-0.03851997,0.05439889,-0.369543,0.4326277,0.7973998,6.858241,9.398886,-59.74727,996.4083
0.049942970,0.09649253,0.08061073,0.0543818,-0.3733767,0.4280987,0.7917023,6.858241,9.398886,-59.74727,996.4083
0.054936886,0.03446982,-0.217199,0.05434764,-0.3704346,0.4277279,0.7955245,6.882644,7.99332,-59.27619,996.4083
0.059931755,-0.02751392,0.1402933,0.1155137,-0.3709993,0.4321109,0.7974043,6.882644,7.99332,-59.27619,996.4083
0.062427998,-0.02750528,0.1402492,-0.006922996,-0.3695001,0.4301948,0.7969394,6.882644,7.99332,-59.27619,996.4083
0.067422867,-0.027488,0.08062049,-0.006918646,-0.3690514,0.4320756,0.7916715,6.882644,7.99332,-59.27619,996.4083
0.069920063,0.09644482,0.2592731,-0.006916473,-0.3714781,0.431628,0.7983633,6.882644,7.99332,-59.27619,996.4083
0.074913979,0.1583658,-0.03861148,0.1766693,-0.3724985,0.434027,0.7978691,6.882644,7.99332,-59.27619,996.4083
0.077411652,0.2202781,0.02095995,0.2378139,-0.369079,0.4341199,0.7992995,6.882644,7.99332,-59.27619,996.4083
0.082405567,0.1581971,-0.09813439,-0.068298,-0.3715163,0.4335176,0.7945285,6.882644,7.99332,-59.27619,996.4088
0.084902763,0.1581474,0.1401336,-0.06827655,-0.3694636,0.4282794,0.7988637,6.882644,7.99332,-59.27619,996.4088
0.089896679,-0.02776034,0.08050501,0.05414752,-0.3719968,0.4330089,0.7935771,6.882644,7.99332,-59.27619,996.4088
0.094891071,0.220086,0.02089514,-0.06824844,-0.3656626,0.4341676,0.7973865,6.882644,7.99332,-59.27619,996.4088
0.097388744,0.1580548,0.08044788,0.0541734,-0.3686221,0.4355089,0.7935573,6.882644,7.99332,-59.27619,996.4088
0.102382660,0.2199176,0.1399379,-0.06820336,-0.3700496,0.4335749,0.7964379,6.882644,7.99332,-59.27619,996.4088
0.104879856,0.1578864,0.08033466,0.1766189,-0.3728974,0.4292022,0.8007698,7.232088,9.037923,-59.74162,996.4088
0.109873772,0.09582511,0.02078103,0.1153077,-0.3665208,0.4273074,0.7940923,7.232088,9.037923,-59.74162,996.4088
0.112370968,0.095795,0.0803338,0.1764717,-0.3743033,0.4257478,0.7988846,7.232088,9.037923,-59.74162,996.4088
0.117364883,0.09571535,-0.03883526,-0.007258997,-0.3704585,0.4292161,0.7979022,7.232088,9.037923,-59.74162,996.4088
0.122359753,0.0337126,0.08028902,-0.00723521,-0.3724907,0.4335288,0.7969174,7.232088,9.037923,-59.74162,996.407
0.124856472,-0.02826009,0.0207045,-0.1296333,-0.3685838,0.4336193,0.7973921,7.232088,9.037923,-59.74162,996.407
0.129850864,-0.02824233,0.1397727,0.1151912,-0.3680743,0.432103,0.7921483,7.232088,9.037923,-59.74162,996.407
0.132348537,0.1576528,-0.09850844,-0.007245366,-0.3719109,0.4281431,0.7926564,7.232088,9.037923,-59.74162,996.407
0.137342453,0.03368799,0.02065333,-0.06842179,-0.3705431,0.4341012,0.8002558,7.232088,9.037923,-59.74162,996.407
0.139839649,0.03367741,-0.03891245,-0.007200093,-0.3705005,0.4316619,0.7993178,7.232088,9.037923,-59.74162,996.407
0.144833565,-0.02830584,-0.03892543,0.05400463,-0.3684836,0.4277377,0.793135,7.232088,9.037923,-59.74162,996.407
0.147330761,-0.02829695,-0.03891321,-0.007212535,-0.3714781,0.431628,0.7983633,7.232088,9.037923,-59.74162,996.407
0.152324677,0.09560607,0.02063312,0.1151732,-0.3699467,0.427732,0.7950466,7.232088,9.037923,-59.74162,996.407
0.157319546,-0.02837817,-0.03893914,0.1763395,-0.3728722,0.4277334,0.7998249,7.232253,9.04642,-59.29515,996.407
0.159816742,0.09555493,-0.1580455,0.1150839,-0.373878,0.4291232,0.796472,7.232253,9.04642,-59.29515,996.407
0.187285423,-0.1524287,0.08019519,0.2369143,-0.369126,0.4364948,0.7954612,7.232253,9.04642,-59.29515,996.407
0.192279339,0.03355334,0.08018222,-0.1303973,-0.3725176,0.4349718,0.7959517,7.232253,9.04642,-59.29515,996.407
0.194776535,-0.02841929,-0.03896156,0.1144445,-0.3691233,0.4365334,0.7983269,7.232253,9.04642,-59.29515,996.407
0.199770451,-0.2762887,-0.09847768,0.1143726,-0.3676697,0.4370116,0.7954566,7.232253,9.04642,-59.29515,996.407
0.202267647,-0.02835357,-0.158006,0.1143367,-0.3646352,0.4312575,0.7959736,7.232253,9.04642,-59.29515,996.4094
0.207261562,0.0335874,-0.1578881,0.1143033,-0.370482,0.4300964,0.7912087,7.232253,9.04642,-59.29515,996.4094
0.212256432,0.0335663,0.0208516,0.0530313,-0.3675375,0.4291502,0.7883478,7.232253,9.04642,-59.29515,996.4094
0.214753151,-0.1523305,0.08040436,-0.008185565,-0.368984,0.4287752,0.7988599,7.232253,9.04642,-59.29515,996.4094
0.219747543,0.1575367,0.02081325,-0.00819965,-0.3723827,0.4271491,0.7917085,7.232253,9.04642,-59.29515,996.4094
0.222244740,0.09552512,-0.03875259,-0.06939728,-0.3723857,0.4277181,0.797914,7.232253,9.04642,-59.29515,996.4094
0.227239132,0.03356142,0.02084977,-0.00813425,-0.3670443,0.4292316,0.7936012,7.232253,9.04642,-59.29515,996.4094
0.229736328,0.2194372,0.08040252,-0.008131694,-0.370982,0.4311403,0.7974112,7.232253,9.04642,-59.29515,996.4094
0.234730244,0.2813003,-0.03874788,-0.008145812,-0.369961,0.4287477,0.7983829,7.232253,9.04642,-59.29515,996.4094
0.237227440,0.1572878,-0.03873571,-0.008143253,-0.3680231,0.4291784,0.7912138,7.232253,9.04642,-59.29515,996.4094
0.242221355,0.09526579,-0.03874879,-0.008099684,-0.3729036,0.429112,0.7940831,7.232253,9.04642,-59.29515,996.4094
0.247216225,-0.1526424,0.08039415,0.1142674,-0.3694763,0.4287067,0.7945617,7.232253,9.04642,-59.29515,996.4094
0.249713421,-0.02867028,0.1399282,0.1142315,-0.3704776,0.4301609,0.7959849,7.232253,9.04642,-59.29515,996.4094
0.254707336,0.03329036,0.08024356,-0.008240708,-0.3670356,0.4287463,0.7936047,7.237522,8.739016,-59.2898,996.4094
0.257204533,0.2191662,-0.03890025,-0.008238119,-0.3714373,0.4291628,0.7955149,7.237522,8.739016,-59.2898,996.4094
0.262198448,0.03316168,-0.09845382,-0.1305949,-0.3690492,0.4321078,0.7940595,7.237522,8.739016,-59.2898,996.4094
0.264696121,0.09511335,0.02069571,0.1142469,-0.3690479,0.4321271,0.7954924,7.237522,8.739016,-59.2898,996.4094
0.269690037,0.1569768,0.2588263,-0.008225234,-0.3733997,0.4295997,0.7950352,7.237522,8.739016,-59.2898,996.4094
0.274684429,0.2807829,0.2587386,0.1753613,-0.3671919,0.4374816,0.7935424,7.237522,8.739016,-59.2898,996.4094
0.277181625,0.09480838,0.1395387,-0.008294385,-0.3675339,0.4292018,0.7921687,7.237522,8.739016,-59.2898,996.4094
0.282176018,0.1567304,-0.03928299,0.05291103,-0.3695357,0.4321231,0.7959703,7.237522,8.739016,-59.2898,996.4059
0.284673214,0.09471905,-0.03927064,0.4200956,-0.3675444,0.4296613,0.7902548,7.237522,8.739016,-59.2898,996.4059
0.289667130,0.09467901,0.1393945,0.0527074,-0.3680265,0.429741,0.7969418,7.237522,8.739016,-59.2898,996.4059
0.292164326,0.03268718,0.1393507,0.1750912,-0.3690626,0.4331363,0.7983511,7.237522,8.739016,-59.2898,996.4059
0.297158241,0.2184945,-0.09895532,0.1138003,-0.373401,0.4295803,0.7936024,7.237522,8.739016,-59.2898,996.4059
0.302153111,0.03252938,-0.03937127,0.1749098,-0.3690752,0.4335637,0.7940491,7.237522,8.739016,-59.2898,996.4059
0.304649830,0.03251916,-0.0989182,0.2972552,-0.3675998,0.4331357,0.795962,6.864729,9.038496,-59.29438,996.4059
0.309644222,-0.02942443,-0.03929676,0.1135255,-0.3689909,0.4292862,0.8007669,6.864729,9.038496,-59.29438,996.4059
0.312141419,0.094509,0.02027489,0.05228968,-0.3714616,0.4306445,0.797415,6.864729,9.038496,-59.29438,996.4059
0.317135334,0.03246807,-0.2774969,0.235819,-0.368613,0.4350301,0.7940384,6.864729,9.038496,-59.29438,996.4059
0.319633007,0.09441996,-0.1582912,-0.009055913,-0.3681772,0.4379459,0.7935396,6.864729,9.038496,-59.29438,996.4059
0.324626923,-0.02954407,-0.2772729,-0.009107904,-0.3700456,0.4336329,0.8007365,6.864729,9.038496,-59.29438,996.4084
0.327124119,0.09438939,0.08017002,-0.1315054,-0.3670307,0.4288172,0.7988585,6.864729,9.038496,-59.29438,996.4084
0.332118034,-0.09147832,0.1396602,-0.009060882,-0.367079,0.4311728,0.7935873,6.864729,9.038496,-59.29438,996.4084
0.337112904,0.09440702,-0.09864599,0.174507,-0.3714251,0.4287291,0.7993393,6.864729,9.038496,-59.29438,996.4084
0.339610100,0.1563395,-0.03905569,0.1132519,-0.3699697,0.429233,0.7983795,6.864729,9.038496,-59.29438,996.4084
0.344604015,0.4660712,-0.2177839,-0.1315623,-0.3628272,0.438974,0.7892302,6.864729,9.038496,-59.29438,996.4084
0.347101212,0.5898489,-0.1581562,0.0520796,-0.3636372,0.458135,0.8072451,6.864729,9.038496,-59.29438,996.4084
0.352095127,-0.649413,0.4373865,-0.1315153,-0.37584,0.4017974,0.789503,6.864729,9.038496,-59.29438,996.4084
0.354592800,0.4041465,0.07989328,-0.1926742,-0.3784039,0.4085262,0.7885013,7.243845,8.37013,-59.28337,996.4084
0.359586716,0.03206167,-0.2178224,0.05217079,-0.3580767,0.4469341,0.7958579,7.243845,8.37013,-59.28337,996.4084
0.364581108,0.403853,0.6159575,-0.07018548,-0.3816358,0.4532434,0.7972597,7.243845,8.37013,-59.28337,996.4032
0.367077828,-0.03000851,0.5562047,-0.1313636,-0.3783344,0.4324128,0.7954957,7.243845,8.37013,-59.28337,996.4032
0.372072220,0.1560134,-0.09916606,-0.07013859,-0.3700782,0.4078372,0.7961439,7.243845,8.37013,-59.28337,996.4032
0.374569893,0.2179265,0.1986616,-0.192517,-0.3771641,0.421796,0.7984368,7.243845,8.37013,-59.28337,996.4032
0.379563809,0.2176923,-0.03964427,0.2359477,-0.3652948,0.4415993,0.8078418,7.243845,8.37013,-59.28337,996.4032
0.382061005,-0.1541487,0.1390461,0.1134732,-0.3635932,0.4273382,0.791702,7.243845,8.37013,-59.28337,996.4032
0.387054920,0.1557002,0.07932459,-0.009017728,-0.3728775,0.4276561,0.7940935,7.243845,8.37013,-59.28337,996.4032
0.389552116,0.4654618,0.07929967,0.0521853,-0.3637472,0.4361057,0.7940279,7.243845,8.37013,-59.28337,996.4032
0.394546032,0.2173599,0.07924984,0.113372,-0.3667848,0.4418147,0.7901676,7.243845,8.37013,-59.28337,996.4032
0.399540901,-0.09248976,0.1387219,0.1745201,-0.3757145,0.4222161,0.791268,7.243845,8.37013,-59.28337,996.4032
0.402038097,0.03146348,0.07911906,0.05206493,-0.3761621,0.4197405,0.78842,7.243845,8.37013,-59.28337,996.4039
0.407032013,0.2173495,-0.03999311,0.05207067,-0.3735815,0.4397973,0.7954403,6.869998,8.731091,-59.28904,996.4039
0.409529686,-0.09252928,0.07913806,0.1132545,-0.3715506,0.4354652,0.7949923,6.869998,8.731091,-59.28904,996.4039
0.414523602,0.09345405,-0.1591114,0.1132026,-0.3698305,0.4208605,0.7893635,6.869998,8.731091,-59.28904,996.4039
0.417020798,0.3412731,-0.03994286,0.113167,-0.3686216,0.4355154,0.794035,6.869998,8.731091,-59.28904,996.4039
0.422014713,-0.3404465,0.01964154,0.0518765,-0.366144,0.433646,0.7954798,6.869998,8.731091,-59.28904,996.4039
0.427009583,0.3412142,0.0791885,0.2353484,-0.3740351,0.4378456,0.7954544,6.869998,8.731091,-59.28904,996.4039
0.429506779,0.03129649,0.01960432,0.05167384,-0.3696323,0.4380562,0.8040484,6.869998,8.731091,-59.28904,996.4039
0.434500694,0.03131576,0.1387106,-0.009558817,-0.368531,0.4301063,0.7888192,6.869998,8.731091,-59.28904,996.4039
0.436997891,0.2171922,0.01954843,-0.009555815,-0.3720046,0.4335071,0.7945289,6.869998,8.731091,-59.28904,996.4039
0.441991806,0.03120841,0.138636,-0.009569039,-0.3733919,0.4291015,0.7940835,6.869998,8.731091,-59.28904,996.4039
0.444489002,-0.09272557,0.01947388,0.1128344,-0.3709608,0.4296136,0.7921677,6.869998,8.731091,-59.28904,996.4039
0.449483395,0.03121793,0.1981208,0.1127635,-0.3689021,0.4238513,0.7936407,6.869998,8.731091,-59.28904,996.4039
0.454477787,-0.2166306,0.1384745,0.05147322,-0.3700198,0.4315628,0.791198,6.508797,8.35428,-59.28184,996.4039
0.456974506,0.09324793,0.07887169,0.1738575,-0.3743927,0.4305621,0.7959843,6.508797,8.35428,-59.28184,996.4039
0.461968899,-0.03067644,0.01924413,-0.009852376,-0.3719661,0.4310098,0.7892923,6.508797,8.35428,-59.28184,996.4039
0.464466572,0.3411058,-0.04032122,-0.009849281,-0.3700596,0.4340408,0.7950016,6.508797,8.35428,-59.28184,996.4039
0.469460487,-0.1546885,-0.04035202,0.2349193,-0.3675404,0.4297193,0.7945533,6.508797,8.35428,-59.28184,996.4039
0.471957684,-0.0307157,0.07877926,0.2960457,-0.3714774,0.4310267,0.7897696,6.508797,8.35428,-59.28184,996.4039
0.476951599,-0.09267796,-0.2190106,0.2958597,-0.3680409,0.4301425,0.7907293,6.508797,8.35428,-59.28184,996.4039
0.479448795,0.03127534,-0.0402639,0.3569669,-0.3689577,0.4267115,0.789799,6.508797,8.35428,-59.28184,996.4039
0.484442711,-0.03072586,0.1384206,0.1731998,-0.3696229,0.4369696,0.7954581,6.508797,8.35428,-59.28184,996.4047
0.489437580,-0.1545918,0.0191776,0.2342912,-0.3733307,0.4257109,0.7945853,6.508797,8.35428,-59.28184,996.4047
0.491934776,-0.2165053,-0.09994702,0.1730173,-0.3729036,0.429112,0.7940831,6.508797,8.35428,-59.28184,996.4047
0.496928692,-0.3402545,0.01919694,0.05048902,-0.3695435,0.4326212,0.7969221,6.508797,8.35428,-59.28184,996.4047
0.499425888,-0.2781856,-0.04036839,0.05047316,-0.3675598,0.4312718,0.8017072,6.508797,8.35428,-59.28184,996.4047
0.504420281,-0.5258202,-0.1594429,0.05044145,-0.368586,0.4335871,0.795004,7.243986,8.377412,-58.90069,996.4047
0.506917477,-0.2778067,-0.04027423,0.0504256,-0.3690922,0.4345407,0.7945198,7.243986,8.377412,-58.90069,996.4047
0.511911392,-0.6493074,-0.1592553,0.05041315,-0.365658,0.4336243,0.7930914,7.243986,8.377412,-58.90069,996.4047
0.516905785,-0.5250337,-0.03999919,-0.1943809,-0.3650463,0.4268664,0.7950498,7.243986,8.377412,-58.90069,996.4047
0.519402504,-0.2770204,-0.03998663,-0.1331196,-0.3694631,0.4282858,0.7993413,7.243986,8.377412,-58.90069,996.4047
0.524397373,-0.2149037,0.198257,-0.07187423,-0.3651131,0.4307875,0.7978879,7.243986,8.377412,-58.90069,996.4047
0.526894569,-0.1528741,0.257754,-0.1330518,-0.3680661,0.4316113,0.7916742,7.243986,8.377412,-58.90069,996.4047
0.531888485,0.2189361,0.3766171,-0.1329875,-0.3699125,0.4257844,0.7945828,7.243986,8.377412,-58.90069,996.4047
0.534385681,0.4047536,0.2573802,-0.3777465,-0.368454,0.4263334,0.7969664,7.243986,8.377412,-58.90069,996.4047
0.539379597,0.03282405,0.2572747,-0.01038491,-0.3675043,0.4277974,0.796,7.243986,8.377412,-58.90069,996.4047
0.541877270,0.1567379,0.5549904,-0.01038164,-0.3729782,0.4335312,0.7978729,7.243986,8.377412,-58.90069,996.4047
0.546871185,0.2805052,0.4355043,-0.01035589,-0.3709998,0.4321044,0.7969267,7.243986,8.377412,-58.90069,996.4047
0.551865578,0.09446222,0.4948088,-0.1939115,-0.3739427,0.4324623,0.7921491,7.243986,8.377412,-58.90069,996.4047
0.554363251,0.3422809,0.4946533,-0.01025002,-0.376725,0.4241492,0.7922101,6.49704,9.022074,-59.74009,996.4047
0.559357166,0.2181806,0.2561615,-0.0713861,-0.3759102,0.4334359,0.795487,6.49704,9.022074,-59.74009,996.4047
0.561854362,0.15615,0.256081,0.1734371,-0.3685326,0.4306946,0.7964576,6.49704,9.022074,-59.74009,996.4047
0.566848278,-0.02977597,0.136839,0.05090855,-0.3704942,0.4305302,0.7873843,6.49704,9.022074,-59.74009,996.4053
0.569345474,0.2180817,0.136796,0.05089255,-0.3706557,0.4398023,0.7911395,6.49704,9.022074,-59.74009,996.4053
0.574339390,-0.09182678,0.1962881,0.1120223,-0.3710289,0.4335152,0.793573,6.49704,9.022074,-59.74009,996.4053
0.579334259,0.09409771,-0.04207245,0.1119904,-0.3713726,0.4258237,0.7998376,6.49704,9.022074,-59.74009,996.4053
0.581831455,-0.09181812,0.01750006,0.05075502,-0.3733719,0.4281695,0.7969561,6.49704,9.022074,-59.74009,996.4053
0.586825371,-0.02979835,0.01752649,0.1119426,-0.3700583,0.4340602,0.7964345,6.49704,9.022074,-59.74009,996.4053
0.589322567,0.1560973,-0.04203831,-0.010493,-0.3759216,0.4338826,0.7926179,6.49704,9.022074,-59.74009,996.4053
0.594316482,-0.09177127,-0.1016086,0.1118948,-0.3670243,0.4282997,0.7964738,6.49704,9.022074,-59.74009,996.4053
0.596814155,-0.09174244,-0.04201741,-0.01054079,-0.3709399,0.4286945,0.7959956,6.49704,9.022074,-59.74009,996.4053
0.601808071,0.094182,-0.1610909,0.0506468,-0.3699394,0.4272273,0.7936172,6.49704,9.022074,-59.74009,996.4053
0.606802463,-0.02974296,-0.1610084,-0.1329664,-0.3734934,0.4349637,0.7969077,6.864564,9.029999,-59.74085,996.4019
0.609299183,0.03222848,-0.04183923,0.05067599,-0.3734635,0.4329516,0.7916678,6.864564,9.029999,-59.74085,996.4019
0.614294052,-0.1536196,0.136865,-0.1329949,-0.36855,0.4316652,0.7964507,6.864564,9.029999,-59.74085,996.4019
0.616791248,0.09427698,0.1963813,-0.07175292,-0.3690465,0.4321465,0.7969252,6.864564,9.029999,-59.74085,996.4019
0.621785164,0.09425668,-0.1014451,-0.132908,-0.373391,0.4291144,0.7950387,6.864564,9.029999,-59.74085,996.4019
0.624282360,0.09422708,-0.1609725,-0.07166609,-0.3719924,0.4330733,0.7983533,6.864564,9.029999,-59.74085,996.4019
0.629276276,0.09416787,-0.1013121,0.05072165,-0.3681129,0.4346004,0.7973849,6.864564,9.029999,-59.74085,996.4019
0.631773949,0.1561004,-0.1012802,-0.07169469,-0.3675964,0.4325731,0.790234,6.864564,9.029999,-59.74085,996.4019
0.636767864,-0.09180711,0.01786457,-0.07164964,-0.3690387,0.4316483,0.7959734,6.864564,9.029999,-59.74085,996.4019
0.641762257,0.03213581,-0.1607497,-0.01044288,-0.3729982,0.4344631,0.7950003,6.864564,9.029999,-59.74085,996.4019
0.644259453,-0.02983637,-0.1011399,0.1119608,-0.3685248,0.4301965,0.7955058,6.864564,9.029999,-59.74085,996.4041
0.649253368,0.03210554,-0.1606357,-0.07165246,-0.3691086,0.4355242,0.7954682,6.864564,9.029999,-59.74085,996.4041
0.651751041,-0.1537908,-0.2201445,-0.01042975,-0.3700935,0.4359949,0.795943,6.864564,9.029999,-59.74085,996.4041
0.656744957,-0.339561,-0.1604469,0.05079623,-0.3715208,0.4334532,0.7897524,6.864729,9.038496,-59.29438,996.4041
0.659242153,-0.2774923,-0.2795151,-0.01041993,-0.3704798,0.4301287,0.7935968,6.864729,9.038496,-59.29438,996.4041
0.664236069,-0.2154142,-0.2197989,0.1732064,-0.3676167,0.4341127,0.7964326,6.864729,9.038496,-59.29438,996.4041
0.669230938,-0.1532584,-0.3983575,-0.1328457,-0.3670864,0.4316774,0.7950167,6.864729,9.038496,-59.29438,996.4041
0.671728134,-0.1532103,-0.2791137,-0.01040355,-0.3699588,0.4287799,0.8007711,6.864729,9.038496,-59.29438,996.4041
0.676722050,-0.1531335,-0.2193791,-0.01039702,-0.3676072,0.4336403,0.7973914,6.864729,9.038496,-59.29438,996.4041
0.679219246,-0.09112328,-0.04063223,-0.01039375,-0.367069,0.4307068,0.7950236,6.864729,9.038496,-59.29438,996.4041
0.684213161,-0.4007986,-0.1597253,-0.1940071,-0.3704967,0.4311057,0.7940675,6.864729,9.038496,-59.29438,996.4023
0.686710834,-0.4626348,-0.3979123,-0.1327459,-0.3700167,0.4316079,0.7945413,6.864729,9.038496,-59.29438,996.4023
0.691704750,-0.2765552,0.01919662,-0.1326817,-0.365633,0.4327632,0.8012177,6.864729,9.038496,-59.29438,996.4023
0.694201946,-0.2764683,-0.04036871,-0.07143985,-0.365992,0.4254604,0.8003147,6.864729,9.038496,-59.29438,996.4023
0.699196339,-0.02854363,0.07873783,-0.07139497,-0.3690374,0.4316676,0.7974063,6.864729,9.038496,-59.29438,996.4023
0.704190731,-0.1524109,0.01916649,-0.1325696,-0.3680425,0.4307309,0.7983677,6.864729,9.038496,-59.29438,996.4023
0.706687927,-0.09040097,0.1382791,-0.1937281,-0.3665894,0.4312026,0.7950198,6.864729,9.038496,-59.29438,996.4023
0.711681843,0.03356054,0.1381735,-0.1324062,-0.3695096,0.4306672,0.7959807,6.864729,9.038496,-59.29438,996.4023
0.714179039,-0.09037419,0.1976894,0.05123601,-0.3728944,0.4286332,0.7945642,6.864729,9.038496,-59.29438,996.4023
0.719172954,-0.02843319,0.018906,-0.07117736,-0.3714968,0.4325792,0.7969236,6.864729,9.038496,-59.29438,996.4023
0.721670151,-0.1523484,0.197578,-0.2547556,-0.3699971,0.4306695,0.7969363,6.864729,9.038496,-59.29438,996.4023
0.726664543,0.03363355,0.1974913,-0.00985243,-0.3748962,0.4315544,0.7983658,6.864729,9.038496,-59.29438,996.4005
0.731658935,-0.214197,-0.04081388,-0.2545894,-0.367118,0.4336637,0.7983462,6.864729,9.038496,-59.29438,996.4005
0.734156132,-0.2141297,-0.04080106,-0.07090878,-0.366641,0.4341208,0.7954767,6.864729,9.038496,-59.29438,996.4005
0.739150047,-0.1520915,-0.2194159,-0.009644806,-0.3739696,0.4339053,0.7911835,6.864729,9.038496,-59.29438,996.4005
0.741647720,-0.2140058,-0.1597877,-0.07084198,-0.3720242,0.4344455,0.7921339,6.864729,9.038496,-59.29438,996.4005
0.746641636,-0.2757945,-0.3383278,-0.1319592,-0.3709277,0.4282607,0.79982,6.864729,9.038496,-59.29438,996.4005
0.749138832,-0.1517837,0.07869362,-0.193118,-0.3666295,0.4330665,0.7892745,6.864729,9.038496,-59.29438,996.4005
0.754132748,-0.2136505,-0.04045571,-0.1929967,-0.3700852,0.4355032,0.7954689,7.226071,9.422589,-58.9189,996.4005
0.759127617,-0.1515541,-0.3382455,-0.1929139,-0.3734066,0.4301108,0.7969423,7.226071,9.422589,-58.9189,996.4005
0.761624813,-0.2134686,-0.1594613,-0.2540534,-0.3670247,0.4282932,0.7959962,7.226071,9.422589,-58.9189,996.4005
0.766618729,-0.2132956,-0.09980187,-0.1315704,-0.3646145,0.4297243,0.7902526,7.226071,9.422589,-58.9189,996.403
0.769115925,-0.2132286,-0.09977051,-0.1927292,-0.3694905,0.4297224,0.7978981,7.226071,9.422589,-58.9189,996.403
0.774109840,-0.02726674,-0.3974482,-0.2538083,-0.3719112,0.4287508,0.8017277,7.226071,9.422589,-58.9189,996.403
0.776607037,-0.3990307,-0.09952684,-0.1313282,-0.36959,0.4350026,0.7935615,7.226071,9.422589,-58.9189,996.403
0.781601429,-0.02702696,-0.09946431,-0.07006473,-0.3684787,0.4278086,0.7983888,7.226071,9.422589,-58.9189,996.403
0.784098625,0.03494362,-0.03987376,-0.1312429,-0.3704616,0.429171,0.7945589,7.226071,9.422589,-58.9189,996.403
0.789093018,-0.08896358,-0.2184892,-0.008760067,-0.3665885,0.4312155,0.795975,7.226071,9.422589,-58.9189,996.403
0.794086933,-0.0889077,0.01982913,0.05244564,-0.368422,0.4243536,0.7941145,7.226071,9.422589,-58.9189,996.403
0.796584606,-0.08887976,-0.0397364,-0.06997124,-0.3734974,0.4349057,0.7926091,7.226071,9.422589,-58.9189,996.403
0.801578522,-0.08878499,-0.3374144,-0.131089,-0.3690309,0.4311501,0.7950217,7.226071,9.422589,-58.9189,996.403
0.804075718,-0.08875711,-0.2777491,0.05255276,-0.3699158,0.426347,0.8003107,6.869833,8.722594,-59.7355,996.403
0.809069633,-0.08866242,-0.03933739,-0.00868046,-0.3690948,0.434502,0.7916542,6.869833,8.722594,-59.7355,996.4072
0.811566830,-0.2125587,-0.2180029,0.05252247,-0.3671006,0.4326931,0.7983531,6.869833,8.722594,-59.7355,996.4072
0.816561699,-0.1504242,-0.1582693,0.1136704,-0.3705128,0.4320956,0.7954934,6.869833,8.722594,-59.7355,996.4072
0.821555614,-0.274215,-0.4559476,0.05241806,-0.3715649,0.4364809,0.7983287,6.869833,8.722594,-59.7355,996.4072
0.824052811,-0.08824252,-0.3962451,-0.131199,-0.367556,0.4307157,0.7964569,6.869833,8.722594,-59.7355,996.4072
0.829046726,-0.026225,-0.3364556,-0.06995484,-0.3680005,0.4282851,0.7969522,6.869833,8.722594,-59.7355,996.4072
0.831544399,-0.02621676,-0.157672,-0.008732661,-0.3676341,0.4350833,0.7964257,6.869833,8.722594,-59.7355,996.4072
0.836538315,-0.2120087,-0.2170948,-0.253528,-0.3681107,0.4346326,0.7997729,6.869833,8.722594,-59.7355,996.4072
0.839035511,-0.2119421,-0.1574673,-0.3758487,-0.3695339,0.4321488,0.7978808,6.869833,8.722594,-59.7355,996.4072
0.844029427,-0.1498469,-0.09782777,-0.2532699,-0.3733594,0.4271281,0.7917092,6.869833,8.722594,-59.7355,996.4072
0.849023819,0.03607516,0.1405083,-0.1307104,-0.3714825,0.4315635,0.7935871,6.869833,8.722594,-59.7355,996.4055
0.851521492,0.03606383,0.1404642,-0.1918695,-0.3660846,0.4302297,0.7940711,6.869833,8.722594,-59.7355,996.4055
0.856515408,0.2838311,0.02131346,-0.2529684,-0.3724262,0.4295756,0.7916912,6.502474,8.723166,-59.28827,996.4055
0.859012604,0.0978557,-0.1573711,-0.3140891,-0.3694037,0.4248694,0.7979326,6.502474,8.723166,-59.28827,996.4055
0.864006519,-0.08805311,-0.1573284,-0.0691487,-0.3674723,0.4258176,0.7931482,6.502474,8.723166,-59.28827,996.4055
0.866503715,0.2837471,0.08095822,-0.1303272,-0.3694914,0.4297095,0.7969429,6.502474,8.723166,-59.28827,996.4055
0.871497631,0.03579834,0.08090736,-0.007844898,-0.3680022,0.4282593,0.7950417,6.502474,8.723166,-59.28827,996.4055
0.873995304,0.2836354,0.1404412,0.05335777,-0.3734213,0.43112,0.7998011,6.502474,8.723166,-59.28827,996.4055
0.878989696,0.09759046,0.08079372,-0.06905693,-0.372499,0.4340205,0.7973915,6.502474,8.723166,-59.28827,996.4055
0.883983612,0.09754862,-0.09787881,-0.06903277,-0.369094,0.4345149,0.7926093,6.502474,8.723166,-59.28827,996.4055
0.886481285,-0.02640621,-0.03828876,-0.06901108,-0.3651423,0.4321983,0.7945342,6.502474,8.723166,-59.28827,996.4055
0.891475201,-0.1502943,-0.03824599,-0.007767529,-0.3700191,0.4321834,0.8012245,6.502474,8.723166,-59.28827,996.4055
0.893972397,-0.1502471,-0.03823398,-0.2525659,-0.3681347,0.4355065,0.7926017,6.502474,8.723166,-59.28827,996.4055
0.898966312,0.09759831,-0.03822867,-0.1912455,-0.3665043,0.4263239,0.793144,6.502474,8.723166,-59.28827,996.4055
0.901463509,0.09756765,-0.1573353,-0.1911854,-0.3694789,0.428668,0.791696,6.502474,8.723166,-59.28827,996.4055
0.906458378,-0.2742078,-0.1572177,-0.1298843,-0.3665798,0.4307302,0.7959785,7.232088,9.037923,-59.74162,996.4055
0.911452293,-0.08818819,-0.2166408,-0.007440772,-0.3665789,0.4307431,0.7969338,7.232088,9.037923,-59.74162,996.4055
0.913949490,-0.08816049,-0.03789486,-0.06863864,-0.3720472,0.4359465,0.7954668,7.232088,9.037923,-59.74162,996.4055
0.918943405,-0.0881051,-0.1570084,-0.06855706,-0.3700253,0.4320932,0.7945378,7.232088,9.037923,-59.74162,996.4055
0.921440601,-0.1500395,-0.09739974,-0.1297357,-0.3674184,0.4229316,0.7950794,7.232088,9.037923,-59.74162,996.4055
0.926434994,-0.08800263,0.08133935,-0.06845403,-0.373947,0.433012,0.7969219,7.232088,9.037923,-59.74162,996.4037
0.928932190,-0.2738613,-0.0973641,-0.1296327,-0.3700067,0.4311419,0.7959776,7.232088,9.037923,-59.74162,996.4037
0.933926105,-0.08782241,0.1408968,-0.1906746,-0.3655823,0.4298322,0.7998056,7.232088,9.037923,-59.74162,996.4037
0.936423302,0.09809145,0.08129328,-0.4354155,-0.3636504,0.4307868,0.7954987,7.232088,9.037923,-59.74162,996.4037
0.941418171,0.03602882,0.2003234,-0.1292178,-0.3725992,0.4399021,0.8016486,7.232088,9.037923,-59.74162,996.4037
0.946412086,-0.0878596,0.1406195,-0.1291367,-0.3707048,0.4149902,0.7874953,7.232088,9.037923,-59.74162,996.4037
0.948909283,0.3459027,0.02145675,-0.2514965,-0.3723349,0.424787,0.7965019,7.232088,9.037923,-59.74162,996.4037
0.953903198,0.03589435,0.08098386,-0.2513577,-0.3660888,0.4307794,0.7988439,6.869998,8.731091,-59.28904,996.4037
0.956400394,0.03588307,0.1405177,-0.06767816,-0.3650866,0.429338,0.7983758,6.869998,8.731091,-59.28904,996.4037
0.961394310,0.03587999,0.08088886,-0.006416216,-0.3749383,0.4340003,0.7997814,6.869998,8.731091,-59.28904,996.4037
0.963891983,-0.08805546,-0.03825516,-0.1288146,-0.3719842,0.4325816,0.7978791,6.869998,8.731091,-59.28904,996.4037
0.968886375,0.1598288,0.1999874,-0.2511341,-0.3695938,0.4355588,0.7988119,6.869998,8.731091,-59.28904,996.4063
0.973880291,0.03582363,0.02122125,-0.1285759,-0.3700176,0.431595,0.7935861,6.869998,8.731091,-59.28904,996.4063
0.976377487,0.03581238,0.02121459,-0.1285355,-0.3680595,0.4317079,0.7988384,6.869998,8.731091,-59.28904,996.4063
0.981371880,-0.1501158,0.2594011,-0.1896742,-0.3713977,0.4272925,0.8007826,6.869998,8.731091,-59.28904,996.4063
0.983869076,-0.02614452,0.1402009,-0.312015,-0.3700683,0.4345261,0.7949982,6.869998,8.731091,-59.28904,996.4063
0.988862991,0.09777662,0.08059099,-0.3117998,-0.3719599,0.4311,0.795979,6.869998,8.731091,-59.28904,996.4063
0.991360188,0.0977459,0.1996843,-0.06690101,-0.3723658,0.426172,0.7912378,6.869998,8.731091,-59.28904,996.4063
0.996355057,0.2216281,0.1995214,-0.2504019,-0.3737898,0.4242896,0.7979394,6.869998,8.731091,-59.28904,996.4063
1.001348972,0.1595852,0.139818,-0.1278826,-0.3669701,0.4248059,0.7893337,6.869998,8.731091,-59.28904,996.4063
1.003846169,0.2214972,0.08021483,-0.1890427,-0.3718671,0.425723,0.7931514,7.232394,9.053702,-58.91247,996.4063
1.008840084,0.09745331,0.0801083,0.05583844,-0.3733701,0.4281953,0.7988666,7.232394,9.053702,-58.91247,996.4044
1.011337280,0.0974227,0.1396424,0.05582089,-0.3718748,0.4262212,0.7941031,7.232394,9.053702,-58.91247,996.4044
1.016331196,0.1593041,0.08001412,0.1170053,-0.3704972,0.4310992,0.7935899,7.232394,9.053702,-58.91247,996.4044
1.018828869,-0.0266322,-0.03912962,0.1169685,-0.3690283,0.4311887,0.7978873,7.232394,9.053702,-58.91247,996.4044
1.023823261,-0.02661547,-0.09868305,0.05575249,-0.375366,0.4299785,0.7902571,7.232394,9.053702,-58.91247,996.4044
1.026319981,-0.08856919,0.02046655,0.2393356,-0.3759071,0.4334811,0.7988304,7.232394,9.053702,-58.91247,996.4044
1.031314850,-0.2124183,0.08001299,0.116804,-0.3709713,0.4300731,0.7902538,7.232394,9.053702,-58.91247,996.4044
1.036308765,-0.1504006,-0.2177776,0.1167114,-0.3646455,0.4323312,0.8036086,7.232394,9.053702,-58.91247,996.4044
1.038805962,-0.2123154,-0.2772685,0.05547458,-0.3689746,0.4276886,0.7902697,7.232394,9.053702,-58.91247,996.4044
1.043799877,-0.2122015,-0.1580506,0.05543973,-0.3719868,0.4325429,0.7950134,7.232394,9.053702,-58.91247,996.4044
1.046297073,-0.1501728,-0.2771195,-0.005777892,-0.3725056,0.4339239,0.7902272,7.232394,9.053702,-58.91247,996.4086
1.051291943,-0.2740026,-0.1578455,0.05542594,-0.3670554,0.4302924,0.8002809,7.232394,9.053702,-58.91247,996.4086
1.053788662,-0.3978407,-0.2769146,-0.06699188,-0.3703821,0.4248226,0.7960229,6.49737,9.039067,-58.84716,996.4086
1.058783054,0.09796968,-0.3362999,-0.06698824,-0.3709486,0.4291798,0.7959921,6.49737,9.039067,-58.84716,996.4086
1.063776970,0.03598498,-0.2169887,-0.005765185,-0.3675956,0.4325859,0.7911893,6.49737,9.039067,-58.84716,996.4086
1.066274166,-0.08795051,0.02131663,-0.3117644,-0.3650853,0.4293574,0.7998087,6.49737,9.039067,-58.84716,996.4086
1.071268082,0.03600945,-0.216934,-0.1892258,-0.3651418,0.4322047,0.7950118,6.49737,9.039067,-58.84716,996.4086
1.073765755,0.1599223,-0.1573065,-0.06676595,-0.371906,0.428214,0.7979102,6.49737,9.039067,-58.84716,996.4086
1.078759670,0.1598608,-0.2167483,-0.005581486,-0.3733346,0.4256529,0.7902868,6.49737,9.039067,-58.84716,996.4086
1.081256866,-0.02607571,0.08111633,-0.06677993,-0.3714921,0.432036,0.7926284,6.49737,9.039067,-58.84716,996.4086
1.086251736,0.2217501,-0.0379971,-0.06675721,-0.3739013,0.4306177,0.7993273,6.49737,9.039067,-58.84716,996.4052
1.088747978,0.09775626,0.1406927,0.05566417,-0.3714738,0.4310782,0.7935906,6.49737,9.039067,-58.84716,996.4052
1.093742847,0.1596375,0.02152317,0.05560997,-0.3695911,0.4355974,0.8016775,6.49737,9.039067,-58.84716,996.4052
1.098736763,0.2214993,-0.1571308,0.05557504,-0.3675734,0.4316863,0.79645,6.49737,9.039067,-58.84716,996.4052
1.101233959,0.2833918,0.02159644,0.3003584,-0.3675204,0.4287874,0.797426,6.49737,9.039067,-58.84716,996.4052
1.106227875,0.407099,-0.03797643,-0.005773637,-0.3675286,0.4292791,0.7979001,7.237357,8.730518,-59.73626,996.4052
1.108725548,0.5308953,-0.0379645,0.1166286,-0.3700336,0.4325849,0.795012,7.237357,8.730518,-59.73626,996.4052
1.113719940,0.2828302,0.1406624,0.1777747,-0.3714035,0.4272088,0.7945735,7.237357,8.730518,-59.73626,996.4052
1.116216660,0.3447034,0.02149961,0.1777189,-0.3705123,0.4321021,0.795971,7.237357,8.730518,-59.73626,996.4052
1.121211052,0.1586785,0.0810267,0.05522607,-0.373749,0.4218244,0.795091,7.237357,8.730518,-59.73626,996.4052
1.126204968,0.3444067,0.02141649,0.1164493,-0.372874,0.4277076,0.7979144,7.237357,8.730518,-59.73626,996.4073
1.128702641,0.4682226,0.08096907,0.3000133,-0.369951,0.4282817,0.7998193,7.237357,8.730518,-59.73626,996.4073
1.133696556,0.3440238,0.2595961,0.2386438,-0.3689359,0.4258054,0.7945821,7.237357,8.730518,-59.73626,996.4073
1.136193752,0.4058778,0.2595145,0.299769,-0.3700171,0.4316015,0.7940637,7.237357,8.730518,-59.73626,996.4073
1.141188622,0.3436607,-0.09796686,0.1771803,-0.3685513,0.4316459,0.7950178,7.237357,8.730518,-59.73626,996.4073
1.143684864,0.4674769,-0.1574954,0.1159245,-0.370535,0.4329953,0.7902327,7.237357,8.730518,-59.73626,996.4073
1.148679733,0.2194322,0.02124403,0.05465144,-0.3763551,0.430999,0.7955047,7.237357,8.730518,-59.73626,996.4073
1.153673649,0.5290075,-0.09788791,0.1769791,-0.3695461,0.4325826,0.7940564,6.864729,9.038496,-59.29438,996.4073
1.156170845,0.4668792,-0.1574165,0.1769235,-0.3701117,0.4369526,0.7949809,6.864729,9.038496,-59.29438,996.4073
1.161164761,0.218796,-0.09777698,0.1767931,-0.3680681,0.4321932,0.798835,6.864729,9.038496,-59.29438,996.4073
1.163662434,0.3426514,-0.2764242,0.1155373,-0.3735442,0.4378948,0.7983198,6.864729,9.038496,-59.29438,996.4073
1.168656826,0.2805324,-0.2762505,0.05428378,-0.3723863,0.4270975,0.7878876,6.864729,9.038496,-59.29438,996.4055
1.171153545,0.5282927,-0.2166044,-0.006933472,-0.3690897,0.4339652,0.7878367,6.864729,9.038496,-59.29438,996.4055
1.176147938,0.0942651,-0.2164309,0.1154713,-0.3710423,0.4345438,0.7978646,6.864729,9.038496,-59.29438,996.4055
1.178644657,-0.09165078,-0.2163629,-0.006965392,-0.3718662,0.425736,0.7941066,6.864729,9.038496,-59.29438,996.4055
1.183639526,0.589873,-0.3353456,0.1766204,-0.36855,0.4316652,0.7964507,6.864729,9.038496,-59.29438,996.4055
1.188633442,0.09382516,-0.2755944,0.298929,-0.3680521,0.4312033,0.7974091,6.864729,9.038496,-59.29438,996.4055
1.191130638,0.2177199,-0.1563892,0.2376349,-0.3732894,0.4232521,0.7922145,6.864729,9.038496,-59.29438,996.4055
1.196125507,0.4653925,-0.1563096,0.1151237,-0.3700839,0.4355225,0.7969018,6.864729,9.038496,-59.29438,996.4055
1.198621750,0.3413221,-0.1562605,0.1762877,-0.3675778,0.4316218,0.7916738,6.864729,9.038496,-59.29438,996.4055
1.203616619,0.1552409,-0.2752248,0.1761385,-0.3674961,0.4273057,0.7955258,7.237687,8.747512,-58.84333,996.4055
1.206113339,0.5889268,-0.09646045,0.114883,-0.3666288,0.4336871,0.7993011,7.237687,8.747512,-58.84333,996.4055
1.211107731,0.4646521,-0.09638114,0.2984114,-0.3705831,0.4359651,0.7945105,7.237687,8.747512,-58.84333,996.408
1.216101646,0.2166091,-0.0963393,0.237043,-0.3695495,0.4331452,0.7997844,7.237687,8.747512,-58.84333,996.408
1.218599320,0.03065481,-0.03674974,0.1757683,-0.366128,0.4326561,0.7940539,7.237687,8.747512,-58.84333,996.408
1.223593235,0.2784255,-0.1558078,0.1756579,-0.3700579,0.4340666,0.7969121,7.237687,8.747512,-58.84333,996.408
1.226090431,0.216376,-0.1557589,0.1756027,-0.3665745,0.4308075,0.8017099,7.237687,8.747512,-58.84333,996.408
1.231084824,0.1542779,-0.03656114,0.1143306,-0.3699741,0.4291686,0.7936034,7.237687,8.747512,-58.84333,996.408
1.233581543,-0.0316568,0.02300965,0.1142947,-0.3728971,0.4285945,0.7916985,7.237687,8.747512,-58.84333,996.408
1.238576412,0.09228727,-0.155664,0.1754039,-0.3705406,0.4335257,0.7935726,7.237687,8.747512,-58.84333,996.408
1.241073608,0.03029619,-0.1556151,0.236549,-0.3744297,0.4324711,0.7935824,7.237687,8.747512,-58.84333,996.408
1.246067524,-0.09356917,-0.2150205,0.2363811,-0.3696007,0.4360698,0.8007189,7.237687,8.747512,-58.84333,996.408
1.251061440,-0.03158722,-0.3339853,-0.008529702,-0.3705141,0.4320763,0.7940606,7.237687,8.747512,-58.84333,996.4063
1.253558636,-0.09353939,-0.3934397,0.05267318,-0.3676172,0.4341063,0.795955,6.864564,9.029999,-59.74085,996.4063
1.258553505,-0.09346116,-0.1550115,-0.00857934,-0.3646039,0.429879,0.8017154,6.864564,9.029999,-59.74085,996.4063
1.261050224,-0.0934318,-0.09540346,0.175024,-0.3660733,0.429783,0.7969403,6.864564,9.029999,-59.74085,996.4063
1.266044617,-0.09335364,-0.03578422,0.05253283,-0.3665859,0.4312542,0.7988408,6.864564,9.029999,-59.74085,996.4063
1.268541336,-0.09332431,-0.1548916,-0.06988408,-0.3690652,0.4330977,0.7954854,6.864564,9.029999,-59.74085,996.4063
1.273536205,-0.1551888,-0.09523498,-0.1310596,-0.3694992,0.4302077,0.7978946,6.864564,9.029999,-59.74085,996.4063
1.278530121,-0.279035,0.02398087,-0.1921967,-0.3682816,0.4443772,0.8025694,6.864564,9.029999,-59.74085,996.4063
1.281027317,-0.6507198,0.02397334,-0.3145367,-0.3646739,0.4331407,0.7916613,6.864564,9.029999,-59.74085,996.4063
1.286022186,-0.3405201,0.02395828,-0.1919195,-0.3710991,0.4379989,0.802139,6.864564,9.029999,-59.74085,996.4063
1.288518429,-0.4643373,0.02395076,-0.130659,-0.3699741,0.4291686,0.7936034,6.864564,9.029999,-59.74085,996.4088
1.293513298,-0.2162751,0.08356985,-0.1917387,-0.3738406,0.4272207,0.7993515,6.864564,9.029999,-59.74085,996.4088
1.296010494,-0.2162071,0.0835436,-0.1304782,-0.3719476,0.4306662,0.7998034,6.864564,9.029999,-59.74085,996.4088
1.301004410,-0.2160519,0.08350983,-0.3139969,-0.3715137,0.4335563,0.7973943,6.864564,9.029999,-59.74085,996.4088
1.305998325,-0.2778393,-0.09510827,-0.1914376,-0.368023,0.4297925,0.8007628,6.869998,8.731091,-59.28904,996.4088
1.308495998,-0.277752,-0.1546377,-0.2525777,-0.3699944,0.4307082,0.799802,6.869998,8.731091,-59.28904,996.4088
1.313490391,-0.09173018,-0.03540323,-0.2523998,-0.3709334,0.428177,0.793611,6.869998,8.731091,-59.28904,996.4088
1.315987110,-0.1536634,-0.1545107,-0.1299201,-0.3670547,0.4296911,0.7916873,6.869998,8.731091,-59.28904,996.4088
1.320981503,-0.1536058,0.08376743,-0.3134199,-0.3733284,0.4257431,0.7969735,6.869998,8.731091,-59.28904,996.4088
1.323478222,-0.2155197,0.02418181,-0.06852061,-0.3698239,0.4209572,0.7965278,6.869998,8.731091,-59.28904,996.4088
1.328473091,-0.0915185,0.2028445,-0.1296778,-0.3733879,0.4291595,0.798382,6.869998,8.731091,-59.28904,996.407
1.330970287,-0.2154139,0.2027808,-0.06843682,-0.3719915,0.4330862,0.7993085,6.869998,8.731091,-59.28904,996.407
1.335964203,0.09447345,-0.03550896,0.1151876,-0.3680833,0.433196,0.8012161,6.869998,8.731091,-59.28904,996.407
1.340959072,-0.215338,0.1431351,0.2375348,-0.3731779,0.4169239,0.7908266,6.869998,8.731091,-59.28904,996.407
1.343455315,0.03257806,0.02397155,0.17626,-0.3733342,0.4256593,0.7907644,6.869998,8.731091,-59.28904,996.407
1.348450184,0.03249919,-0.0355841,0.115026,-0.3676354,0.435064,0.7949929,6.869998,8.731091,-59.28904,996.407
1.350946903,0.03248899,0.02398638,0.1149898,-0.3686737,0.4384272,0.7940142,6.869998,8.731091,-59.28904,996.407
1.355941296,0.1564317,0.02399002,-0.06872147,-0.3690031,0.42972,0.7969425,6.86487,9.045778,-58.9117,996.407
1.358438492,0.2803067,0.08354179,-0.007499671,-0.3676454,0.4355299,0.7935566,6.86487,9.045778,-58.9117,996.407
1.363432884,-0.1535845,-0.03562929,0.1149054,-0.3728575,0.4267242,0.7969661,6.86487,9.045778,-58.9117,996.407
1.368426800,0.03243715,-0.03562562,0.1760335,-0.3685974,0.4340337,0.7921348,6.86487,9.045778,-58.9117,996.4095
1.370923996,0.03242696,0.02394487,0.1759782,-0.3662195,0.4380524,0.7983143,6.86487,9.045778,-58.9117,996.4095
1.375918388,-0.2773455,-0.03561076,-0.130018,-0.3699594,0.4281593,0.7907445,6.86487,9.045778,-58.9117,996.4095
1.378415108,0.1564763,-0.03559957,-0.007576795,-0.3691356,0.4369672,0.7945026,6.86487,9.045778,-58.9117,996.4095
1.383409977,-0.2773177,0.08354139,0.05364739,-0.3666368,0.4335711,0.790704,6.86487,9.045778,-58.9117,996.4095
1.385907173,-0.09134431,0.1430745,0.1148307,-0.3674845,0.4262513,0.7893237,6.86487,9.045778,-58.9117,996.4095
1.390901089,-0.1532685,0.02390338,-0.06878433,-0.3686099,0.4350752,0.7973818,6.86487,9.045778,-58.9117,996.4095
1.393398285,-0.09125824,0.02389587,0.05363769,-0.3709755,0.4306228,0.7950265,6.86487,9.045778,-58.9117,996.4095
1.398392201,-0.09118145,0.1429995,-0.007596209,-0.3684476,0.4258159,0.7945817,6.86487,9.045778,-58.9117,996.4095
1.403387070,-0.1530862,-0.1547933,0.114809,-0.3715024,0.4331096,0.8002634,6.869833,8.722594,-59.7355,996.4095
1.405883789,-0.09107608,0.08349252,-0.007627505,-0.3675126,0.4282892,0.7964742,6.869833,8.722594,-59.7355,996.4095
1.410878182,-0.09105779,-0.03571596,0.1147777,-0.3699503,0.4276804,0.7912256,6.869833,8.722594,-59.7355,996.4077
1.413375855,-0.1529913,0.08341386,-0.007658771,-0.3724591,0.4315425,0.7935879,6.869833,8.722594,-59.7355,996.4077
1.418369770,0.09495319,-0.03573843,0.175889,-0.3695796,0.4345431,0.7954754,6.869833,8.722594,-59.7355,996.4077
1.420866966,0.09492336,0.1429507,0.2370339,-0.36209,0.42548,0.7955357,6.869833,8.722594,-59.7355,996.4077
1.425860882,-0.2148689,-0.1548795,0.2980852,-0.3680882,0.4331251,0.7959623,6.869833,8.722594,-59.7355,996.4077
1.430855274,-0.2767154,-0.09526029,0.05317404,-0.3661307,0.4326174,0.7911881,6.869833,8.722594,-59.7355,996.4077
1.433351994,-0.09074222,-0.1547897,0.05315733,-0.3671322,0.4346794,0.8016826,6.869833,8.722594,-59.7355,996.4077
1.438346863,-0.09062682,-0.09513313,0.1142665,-0.3681013,0.433546,0.7911827,6.869833,8.722594,-59.7355,996.4077
1.440844059,0.03332584,0.02401537,0.05303036,-0.370478,0.4301544,0.7955073,6.869833,8.722594,-59.7355,996.4077
1.445837975,0.09526698,0.1430815,-0.06940336,-0.3724703,0.4326033,0.8002676,6.869833,8.722594,-59.7355,996.4077
1.448335171,-0.09064922,0.08347721,-0.06938156,-0.36856,0.4321312,0.7950144,6.869833,8.722594,-59.7355,996.4102
1.453329086,0.03333192,0.02388418,-0.008137765,-0.3685066,0.4292388,0.796468,6.876462,8.369488,-58.89993,996.4102
1.458323956,0.09523413,0.02385046,-0.06931363,-0.3685379,0.4306173,0.7907262,6.876462,8.369488,-58.89993,996.4102
1.460820675,0.2810905,-0.09527563,-0.008091651,-0.3660307,0.4273436,0.7960023,6.876462,8.369488,-58.89993,996.4102
1.465815067,0.1570481,0.3216806,0.1143331,-0.3708284,0.4223663,0.7946077,6.876462,8.369488,-58.89993,996.4102
1.468312740,0.1569988,0.202461,0.05309694,-0.3733315,0.425698,0.7936301,6.876462,8.369488,-58.89993,996.4102
1.473306656,0.1569391,-0.03582859,-0.008078936,-0.3669639,0.4248961,0.7960204,6.876462,8.369488,-58.89993,996.4102
1.475803852,0.09492768,0.02374196,0.0531238,-0.3713518,0.4242905,0.7941166,6.876462,8.369488,-58.89993,996.4102
1.480797768,0.4046591,0.02370834,0.1143291,-0.3681398,0.4360434,0.7964192,6.876462,8.369488,-58.89993,996.4102
1.483294964,0.2806077,0.1428195,0.05309296,-0.3709595,0.4296329,0.7936006,6.876462,8.369488,-58.89993,996.4102
1.488288880,0.5282214,0.02364859,-0.0693408,-0.372462,0.4321116,0.7997934,6.876462,8.369488,-58.89993,996.4084
1.493283749,0.4659469,0.08324917,-0.00815471,-0.3671137,0.4331139,0.7935735,6.876462,8.369488,-58.89993,996.4084
1.495780468,0.4658006,0.1427823,-0.06935235,-0.3670924,0.4322014,0.7978789,6.876462,8.369488,-58.89993,996.4084
1.500774860,0.3415838,-0.03592915,-0.00810858,-0.3655298,0.4269268,0.800304,6.876462,8.369488,-58.89993,996.4084
1.503272057,0.2795144,0.02364143,-0.008106032,-0.3743563,0.4286467,0.7979086,7.237522,8.739016,-59.2898,996.4084
1.508265972,0.4032435,-0.09549202,0.1142802,-0.3705045,0.4316039,0.7950193,7.237522,8.739016,-59.2898,996.4084
1.510763645,0.4650789,0.02365658,0.05304413,-0.3656975,0.4354946,0.7878237,7.237522,8.739016,-59.2898,996.4084
1.515757561,0.2169189,0.08318231,0.05303004,-0.3699029,0.425312,0.7955415,7.237522,8.739016,-59.2898,996.4084
1.520751953,0.4645531,-0.03595113,0.05299672,-0.3728284,0.4253134,0.8003198,7.237522,8.739016,-59.2898,996.4084
1.523248672,0.340483,-0.1550584,0.05298007,-0.3729278,0.4305936,0.7959832,7.237522,8.739016,-59.2898,996.4084
1.528243542,0.3402107,-0.03589856,0.2365474,-0.369543,0.4326277,0.7973998,7.237522,8.739016,-59.2898,996.4109
1.530740738,0.3401038,0.08323132,0.2364731,-0.3695001,0.4301948,0.7969394,7.237522,8.739016,-59.2898,996.4109
1.535734653,0.5876801,-0.03597699,0.236363,-0.36902,0.430697,0.7974132,7.237522,8.739016,-59.2898,996.4109
1.538231850,0.5255334,0.08315292,0.2362887,-0.3675729,0.4316927,0.7969276,7.237522,8.739016,-59.2898,996.4109
1.543225765,0.6490691,0.02356009,0.05252045,-0.368023,0.4297925,0.8007628,7.237522,8.739016,-59.2898,996.4109
1.545723438,0.6488652,0.2022306,0.1749043,-0.368079,0.4326463,0.7964434,7.237522,8.739016,-59.2898,996.4109
1.550717354,0.5245528,0.142563,0.2971564,-0.3704694,0.4296691,0.7955107,7.237522,8.739016,-59.2898,996.4109
1.555711746,0.5862243,0.08295152,0.296989,-0.3709034,0.4267791,0.7979199,6.876156,8.353708,-59.72908,996.4109
1.558208942,0.7719264,0.2020441,0.4192961,-0.3681142,0.434581,0.795952,6.876156,8.353708,-59.72908,996.4109
1.563203335,0.4617088,0.02329537,0.2354705,-0.3704834,0.4300771,0.7897758,6.876156,8.353708,-59.72908,996.4109
1.565700531,0.7094122,-0.03627126,0.3577969,-0.3691496,0.4373752,0.7887677,6.876156,8.353708,-59.72908,996.4109
1.570694446,0.4611376,0.20197,0.2963527,-0.3675272,0.4292984,0.799333,6.876156,8.353708,-59.72908,996.4092
1.573191643,0.5849169,0.1423473,0.2350594,-0.3689263,0.425333,0.7955408,6.876156,8.353708,-59.72908,996.4092
1.578185558,0.5225484,0.1422766,0.2348925,-0.3690891,0.4345858,0.7978631,6.876156,8.353708,-59.72908,996.4092
1.583180427,0.2124486,0.1421872,0.1123061,-0.3636464,0.4308448,0.7997973,6.876156,8.353708,-59.72908,996.4092
1.585677624,0.4602302,0.3208204,0.05107063,-0.3695584,0.4330163,0.790232,6.876156,8.353708,-59.72908,996.4092
1.590671539,0.1500528,0.3801594,0.1122195,-0.3660837,0.4302425,0.7950264,6.876156,8.353708,-59.72908,996.4092
1.593168735,0.1500057,0.2609214,0.2957849,-0.3659201,0.4210025,0.7936593,6.876156,8.353708,-59.72908,996.4092
1.598162651,0.5835487,0.2011982,0.05085593,-0.3769082,0.4343275,0.7911823,6.876156,8.353708,-59.72908,996.4092
1.600660324,0.5214033,0.3202536,0.1732403,-0.3749236,0.432991,0.7969227,6.876156,8.353708,-59.72908,996.4092
1.605654240,0.3351895,0.2009899,0.2343125,-0.3638062,0.4395285,0.7959141,7.22593,9.415307,-59.30158,996.4092
1.610648632,0.2730947,0.4390635,0.295404,-0.3766903,0.422208,0.7922239,7.22593,9.415307,-59.30158,996.4113
1.613145828,0.5208573,0.141129,0.1729107,-0.3666112,0.4321088,0.7902367,7.22593,9.415307,-59.30158,996.4113
1.618140221,0.458529,0.3792962,0.2339831,-0.3678073,0.4447957,0.7968342,7.22593,9.415307,-59.30158,996.4113
1.620637417,0.08661242,0.2004992,0.1115092,-0.3657359,0.4386061,0.8026091,7.22593,9.415307,-59.30158,996.4113
1.625631332,0.5821769,0.200392,-0.01096127,-0.369069,0.4336539,0.8007358,7.22593,9.415307,-59.30158,996.4113
1.628128529,0.2721835,0.3194476,0.05024237,-0.3709749,0.4312434,0.8050531,7.22593,9.415307,-59.30158,996.4113
1.633122444,0.3959562,0.3192282,-0.07220882,-0.3676377,0.4350317,0.7926047,7.22593,9.415307,-59.30158,996.4113
1.635619640,0.519756,0.2000093,-0.01098593,-0.3682814,0.4437695,0.7934982,7.22593,9.415307,-59.30158,996.4113
1.640614033,0.3335821,0.2593868,-0.07219847,-0.3684489,0.4257966,0.7931489,7.22593,9.415307,-59.30158,996.4113
1.645608425,0.5192588,0.3187832,-0.0109529,-0.3662816,0.4414301,0.7968574,7.22593,9.415307,-59.30158,996.4113
1.648105621,0.4571336,0.3782423,0.05025074,-0.367171,0.4365626,0.7973703,7.22593,9.415307,-59.30158,996.4113
1.653099537,0.3949233,0.3780234,-0.01094258,-0.3749029,0.4314578,0.7912016,7.232253,9.04642,-59.29515,996.4113
1.655597210,0.5187234,0.6757012,-0.07213935,-0.3729955,0.4345018,0.797866,7.232253,9.04642,-59.29515,996.4113
1.660591125,0.3945706,0.3180706,-0.07211325,-0.3718944,0.4271596,0.7917082,7.232253,9.04642,-59.29515,996.4113
1.663088322,0.5803329,0.4966486,0.11151,-0.3729648,0.4325026,0.7935813,7.232253,9.04642,-59.29515,996.4113
1.668083191,0.08434951,0.3772554,0.1113823,-0.369488,0.4291469,0.7912149,7.232253,9.04642,-59.29515,996.4113
1.673077106,0.4559717,0.3174216,-0.01103042,-0.3754714,0.4363969,0.7983316,7.232253,9.04642,-59.29515,996.4113
1.675574303,0.2079801,0.2577626,0.1113734,-0.36902,0.430697,0.7974132,7.232253,9.04642,-59.29515,996.4113
1.680568218,0.1459263,0.3767006,-0.1946591,-0.3719608,0.4310871,0.7950238,7.232253,9.04642,-59.29515,996.4113
1.683065414,0.2698047,0.3170229,-0.1333977,-0.3725337,0.4359617,0.7973777,7.232253,9.04642,-59.29515,996.4113
1.688059330,0.1457499,0.2572458,-0.01095196,-0.3720077,0.433462,0.7911856,7.232253,9.04642,-59.29515,996.4113
1.690557003,-0.04018215,0.01892775,0.1114519,-0.3695635,0.4335532,0.7940495,7.232253,9.04642,-59.29515,996.4138
1.695550919,0.02176625,0.3166562,-0.1333997,-0.3680287,0.4297088,0.7945537,7.232253,9.04642,-59.29515,996.4138
1.700545311,-0.04020952,-0.0408985,0.05026547,-0.368211,0.4399,0.794481,7.232253,9.04642,-59.29515,996.4138
1.703042507,-0.1641211,0.1973515,-0.07215073,-0.3705987,0.4369615,0.7964141,6.869833,8.722594,-59.7355,996.4138
1.708036423,0.0838304,0.07810897,-0.1333248,-0.3699824,0.4296603,0.7940775,6.869833,8.722594,-59.7355,996.4138
1.710534096,-0.04012012,0.197203,-0.1332829,-0.3685869,0.4335742,0.7940488,6.869833,8.722594,-59.7355,996.4138
1.715528011,-0.4117896,-0.04115806,-0.1943994,-0.369955,0.4282237,0.7955207,6.869833,8.722594,-59.7355,996.4138
1.718025207,-0.2877361,0.01841417,-0.07193794,-0.3710298,0.4335023,0.7926177,6.869833,8.722594,-59.7355,996.4138
1.723019123,-0.2255932,0.01847745,-0.3166359,-0.3691273,0.4364755,0.7940284,6.869833,8.722594,-59.7355,996.4138
1.725516319,-0.2255223,0.07803094,-0.194136,-0.3695809,0.4345238,0.7940426,6.869833,8.722594,-59.7355,996.4138
1.730511188,-0.1634185,0.07798192,-0.2552335,-0.3719187,0.4286413,0.7936082,6.869833,8.722594,-59.7355,996.412
1.735505104,-0.2872206,-0.1006701,-0.01029154,-0.3709873,0.431063,0.7916798,6.869833,8.722594,-59.7355,996.412
1.738002300,-0.4110546,0.0780394,-0.1326887,-0.3700614,0.4340151,0.7930912,6.869833,8.722594,-59.7355,996.412
1.742996216,-0.1010443,0.07800908,-0.0713667,-0.3714651,0.4305929,0.7935941,6.869833,8.722594,-59.7355,996.412
1.745493889,-0.472785,0.01842528,-0.1937447,-0.3733367,0.4262348,0.7974476,6.869833,8.722594,-59.7355,996.412
1.750487804,0.0850929,0.07801042,-0.1324228,-0.3657027,0.4360315,0.7916412,6.869833,8.722594,-59.7355,996.412
1.752985001,-0.1008201,0.01842662,-0.1935814,-0.3709742,0.4306421,0.7964594,7.226071,9.422589,-58.9189,996.412
1.757979393,-0.1007762,-0.3388847,-0.1322403,-0.3691768,0.4394259,0.7968734,7.226071,9.422589,-58.9189,996.412
1.762973309,-0.2865408,-0.1005094,-0.1321188,-0.3710881,0.4363239,0.7859103,7.226071,9.422589,-58.9189,996.412
1.765470982,-0.4103749,-0.1004778,-0.1932775,-0.3676063,0.4336532,0.7983465,7.226071,9.422589,-58.9189,996.412
1.770464897,-0.2242503,-0.159974,-0.315518,-0.3666475,0.4346383,0.7978613,7.226071,9.422589,-58.9189,996.4145
1.772962093,-0.4100662,-0.1003644,-0.2542187,-0.366173,0.435671,0.801675,7.226071,9.422589,-58.9189,996.4145
1.777956009,-0.285826,-0.2789606,-0.1316586,-0.3695479,0.4325568,0.7921459,7.226071,9.422589,-58.9189,996.4145
1.780453205,-0.2857362,-0.3979915,-0.2540176,-0.370126,0.4379683,0.7983173,7.226071,9.422589,-58.9189,996.4145
1.785448074,-0.7192329,0.1382361,-0.3762585,-0.3689533,0.426776,0.7945752,7.226071,9.422589,-58.9189,996.4145
1.790441990,-0.1612196,-0.04047254,-0.2536409,-0.3690396,0.4316354,0.7950182,7.226071,9.422589,-58.9189,996.4145
1.792939186,-0.09920685,-0.04045982,-0.3147614,-0.3680525,0.4311969,0.7969314,7.226071,9.422589,-58.9189,996.4145
1.797933102,-0.3469345,0.1382435,-0.3145637,-0.3665863,0.4312477,0.7983631,7.226071,9.422589,-58.9189,996.4145
1.800430775,0.02494705,0.1977594,-0.3756651,-0.3694763,0.4287067,0.7945617,7.226071,9.422589,-58.9189,996.4145
1.805424690,0.2727603,0.2572693,-0.3142096,-0.3670737,0.4312501,0.7993187,6.864729,9.038496,-59.29438,996.4145
1.807921886,0.1487504,0.3167478,-0.3141109,-0.3714507,0.4301914,0.7998065,6.864729,9.038496,-59.29438,996.4145
1.812916279,0.08671433,0.1974489,-0.1915516,-0.370488,0.4306204,0.794071,6.864729,9.038496,-59.29438,996.4128
1.815412998,0.2106113,0.3165054,-0.1302913,-0.370456,0.4286405,0.7912191,6.864729,9.038496,-59.29438,996.4128
1.820407867,0.210479,0.3758285,-0.1301902,-0.3733284,0.4257431,0.7969735,6.864729,9.038496,-59.29438,996.4128
1.825401783,0.2722893,0.1968958,-0.1300699,-0.3705709,0.4355313,0.7983349,6.864729,9.038496,-59.29438,996.4128
1.827898979,0.02435544,0.07771531,-0.4360301,-0.3714378,0.4291564,0.7950373,6.864729,9.038496,-59.29438,996.4128
1.832892895,0.3960543,0.4349662,-0.2522325,-0.3729379,0.4310596,0.7945469,6.864729,9.038496,-59.29438,996.4128
1.835390091,0.2100436,0.4348295,-0.190953,-0.3661875,0.4360725,0.7954625,6.864729,9.038496,-59.29438,996.4128
1.840384960,0.2099311,0.2558784,-0.1296521,-0.3671215,0.4336121,0.7945253,6.864729,9.038496,-59.29438,996.4128
1.842881679,0.2718273,0.255798,-0.1908116,-0.3714776,0.4316344,0.7988409,6.864729,9.038496,-59.29438,996.4128
1.847876072,0.1477518,0.2556186,-0.2519303,-0.3715411,0.4349928,0.795951,6.864729,9.038496,-59.29438,996.4128
1.852869987,0.457411,0.2553832,-0.2517721,-0.3691165,0.4360224,0.7964199,6.869998,8.731091,-59.28904,996.4152
1.855367660,0.271381,0.255303,-0.1292926,-0.3670975,0.4327382,0.8016964,6.869998,8.731091,-59.28904,996.4152
1.860361576,0.2093263,0.195602,-0.2515348,-0.3713536,0.4242648,0.7922061,6.869998,8.731091,-59.28904,996.4152
1.862858772,0.3951468,0.2550999,-0.1902556,-0.3685326,0.4306946,0.7964576,6.869998,8.731091,-59.28904,996.4152
1.867853165,0.08514653,0.1358397,-0.1901553,-0.3690158,0.4301473,0.7926404,6.869998,8.731091,-59.28904,996.4152
1.870349884,0.08511978,0.1953563,-0.06769518,-0.3684983,0.428747,0.7959938,6.869998,8.731091,-59.28904,996.4152
1.875344753,0.02308475,0.1952336,-0.06765265,-0.371525,0.4340029,0.7945251,6.869998,8.731091,-59.28904,996.4152
1.877841473,0.2089638,0.01649437,-0.1900318,-0.3700349,0.4325656,0.7935792,6.869998,8.731091,-59.28904,996.4152
1.882835865,0.1468704,0.4333243,-0.06751202,-0.3714703,0.4311298,0.7974116,6.869998,8.731091,-59.28904,996.4152
1.887829781,0.08487444,0.3139896,-0.06745037,-0.3733905,0.4291208,0.7955163,6.869998,8.731091,-59.28904,996.4152
1.890327454,0.1468099,0.01609444,-0.06742918,-0.3739835,0.4349274,0.7949976,6.869998,8.731091,-59.28904,996.4135
1.895321846,0.02275452,0.1352029,0.05501357,-0.3642077,0.4346651,0.795949,6.869998,8.731091,-59.28904,996.4135
1.897818565,-0.1011768,0.1351604,-0.006203907,-0.3684881,0.4276733,0.7883589,6.869998,8.731091,-59.28904,996.4135
1.902812958,0.2706009,0.1351317,-0.128562,-0.3715927,0.4379111,0.7964079,7.243986,8.377412,-58.90069,996.4135
1.905309677,0.1465917,0.1350892,-0.06732137,-0.3651474,0.4327351,0.7983516,7.243986,8.377412,-58.90069,996.4135
1.910304546,0.2705017,0.01590446,-0.12846,-0.3715462,0.4355296,0.7997685,7.243986,8.377412,-58.90069,996.4135
1.915298462,0.1464465,0.194535,-0.1895988,-0.3685527,0.4316266,0.793585,7.243986,8.377412,-58.90069,996.4135
1.917795658,0.2703246,0.2540331,-0.3731398,-0.3714843,0.4315378,0.7916767,7.243986,8.377412,-58.90069,996.4135
1.922790527,-0.1015982,0.1347549,-0.1894009,-0.3670772,0.4311985,0.7954978,7.243986,8.377412,-58.90069,996.4135
1.925286770,0.146282,0.07515331,-0.2505416,-0.3690345,0.4310985,0.7912007,7.243986,8.377412,-58.90069,996.4135
1.930281639,0.2081522,0.1347028,-0.189184,-0.3691209,0.4359579,0.7916438,7.243986,8.377412,-58.90069,996.4135
1.932778358,0.2080868,0.2537791,-0.311525,-0.3700323,0.4326043,0.7964448,7.243986,8.377412,-58.90069,996.4135
1.937772751,0.145994,0.1345572,-0.2501868,-0.3710267,0.4335474,0.795961,7.243986,8.377412,-58.90069,996.4135
1.942766666,0.1459023,0.3726724,-0.311249,-0.3724395,0.4306041,0.7959828,7.243986,8.377412,-58.90069,996.4135
1.945264339,0.2697806,0.3129961,-0.249951,-0.3744553,0.4339334,0.7940496,7.243986,8.377412,-58.90069,996.4135
1.950258732,0.2696501,0.1342525,-0.310975,-0.3743828,0.4300962,0.7974207,7.243986,8.377412,-58.90069,996.4135
1.952755451,0.2695654,0.07465105,-0.4944779,-0.3700523,0.4335362,0.7935722,6.863675,9.099977,-59.29546,996.4135
1.957749844,0.1455108,0.1341073,-0.2494241,-0.3704685,0.429682,0.7964659,6.863675,9.099977,-59.29546,996.4135
1.960246563,0.1454651,0.1936245,-0.3717462,-0.3744124,0.4315005,0.7935894,6.863675,9.099977,-59.29546,996.4135
1.965241432,0.08345053,-0.1042749,-0.3103509,-0.3768457,0.4309562,0.793117,6.863675,9.099977,-59.29546,996.4135
1.967738628,0.02146222,0.1935543,-0.2490532,-0.3754146,0.4329418,0.7940573,6.863675,9.099977,-59.29546,996.4135
1.972732544,0.3312203,0.1338547,-0.3101354,-0.3723609,0.4262429,0.7964916,6.863675,9.099977,-59.29546,996.4177
1.977727413,0.269128,0.07423003,0.05720297,-0.3749436,0.4339229,0.79405,6.863675,9.099977,-59.29546,996.4177
1.980223656,0.1451192,0.1933253,-0.004015204,-0.3729118,0.4296038,0.7945573,6.863675,9.099977,-59.29546,996.4177
1.985218525,0.3309533,0.07410397,-0.004051135,-0.3734517,0.4325114,0.7950145,6.863675,9.099977,-59.29546,996.4177
1.987715244,0.4547735,0.01452139,-0.06525007,-0.3715845,0.4374193,0.7959337,6.863675,9.099977,-59.29546,996.4177
1.992709637,0.08283202,0.01451227,0.1795533,-0.3714752,0.4310589,0.7921577,6.863675,9.099977,-59.29546,996.4177
1.995206833,0.3306544,-0.0450516,-0.06530394,-0.3709252,0.4276852,0.7931368,6.863675,9.099977,-59.29546,996.4177
2.000201225,0.2066003,0.1336733,-0.004081934,-0.3662117,0.4375542,0.7973626,6.863675,9.099977,-59.29546,996.4177
2.005195141,0.1445084,0.1336268,-0.004060143,-0.3676029,0.4330906,0.7926186,6.870139,8.738374,-58.90635,996.4177
2.007692337,0.3303493,0.2527034,0.05714133,-0.3684975,0.4287599,0.7969491,6.870139,8.738374,-58.90635,996.4177
2.012686729,0.3920844,-0.04525187,-0.06529497,-0.3694923,0.4296966,0.7959876,6.870139,8.738374,-58.90635,996.4177
2.015183449,0.4539233,0.3121181,-0.004074252,-0.365558,0.4283505,0.7979055,6.870139,8.738374,-58.90635,996.4177
2.020178318,0.2677714,0.431022,0.05709006,-0.372413,0.4291547,0.7964708,6.870139,8.738374,-58.90635,996.4177
2.022675514,0.3916114,0.3117679,0.1182723,-0.3738697,0.4286315,0.7959978,6.870139,8.738374,-58.90635,996.4177
2.027669430,0.5772517,0.2520315,0.1182172,-0.3670993,0.4327124,0.799786,6.870139,8.738374,-58.90635,996.4177
2.030166626,0.5151082,0.4901895,0.1181801,-0.3650523,0.4273904,0.7979121,6.870139,8.738374,-58.90635,996.4177
2.035160542,0.6386699,0.4303036,0.3628874,-0.3739176,0.4309935,0.7912043,6.870139,8.738374,-58.90635,996.4177
2.040155411,0.5763455,0.5491519,0.3014977,-0.3733676,0.4276198,0.7921833,6.870139,8.738374,-58.90635,996.4177
2.042652130,0.6381266,0.2511828,0.4238034,-0.3742625,0.4232827,0.7960362,6.870139,8.738374,-58.90635,996.4177
2.047646523,0.5138599,0.3106217,0.5458606,-0.3709564,0.429678,0.796944,6.870139,8.738374,-58.90635,996.4177
2.050144196,0.5136984,0.4892021,0.3620886,-0.3695782,0.4345624,0.7969083,6.870139,8.738374,-58.90635,996.4177
2.055138111,0.5133757,0.3102917,0.4842423,-0.3690966,0.4344763,0.7897437,6.496127,9.090838,-59.35847,996.4198
2.057635307,0.6371387,0.2506349,0.4840902,-0.3686646,0.4379483,0.7944953,6.496127,9.090838,-59.35847,996.4198
2.062629223,0.2650436,0.2504961,0.5450054,-0.3705575,0.4345028,0.7940433,6.496127,9.090838,-59.35847,996.4198
2.067623615,0.3888013,0.1907982,0.3610817,-0.3734627,0.4329645,0.7926229,6.496127,9.090838,-59.35847,996.4198
2.070120335,0.3886792,0.01206036,0.4833687,-0.3685856,0.4335935,0.7954816,6.496127,9.090838,-59.35847,996.4198
2.075115204,0.07866348,0.01205278,0.3606646,-0.3750561,0.4402382,0.7944826,6.496127,9.090838,-59.35847,996.4198
2.077612400,0.264525,0.01204899,0.4829517,-0.3706835,0.4412325,0.7892187,6.496127,9.090838,-59.35847,996.4198
2.082606316,0.2643394,-0.04749916,0.2990669,-0.3715077,0.4330323,0.794532,6.496127,9.090838,-59.35847,996.4198
2.085103512,0.3262185,0.1311937,0.298973,-0.3719755,0.4320963,0.7978826,6.496127,9.090838,-59.35847,996.4198
2.090097427,0.2641098,-0.2857665,0.3599469,-0.3720407,0.4354289,0.7930822,6.496127,9.090838,-59.35847,996.4198
2.095092297,0.2019818,-0.04746199,0.4208825,-0.3675985,0.433155,0.7973949,6.496127,9.090838,-59.35847,996.4216
2.097589016,0.07799417,-0.04744707,0.5431507,-0.3725063,0.4345252,0.7988209,6.496127,9.090838,-59.35847,996.4216
2.102583408,0.07796463,-0.04739856,0.3592089,-0.37246,0.4315296,0.7926326,6.876462,8.369488,-58.89993,996.4216
2.105081081,0.01597805,-0.106943,0.5426967,-0.3720242,0.4344455,0.7921339,6.876462,8.369488,-58.89993,996.4216
2.110074997,0.1398338,-0.285535,0.5423749,-0.3695566,0.4330421,0.7921425,6.876462,8.369488,-58.89993,996.4216
2.112572193,0.01586569,-0.1067674,0.6034047,-0.3710216,0.4330106,0.7921435,6.876462,8.369488,-58.89993,996.4216
2.117566109,0.01585572,-0.4045155,0.7865878,-0.3710024,0.4320658,0.7940609,6.876462,8.369488,-58.89993,996.4216
2.120063305,-0.04611135,-0.3448291,0.8475409,-0.3704607,0.4291838,0.7955142,6.876462,8.369488,-58.89993,996.4216
2.125057220,-0.1080445,-0.2254939,0.5410459,-0.3729083,0.4296553,0.7983782,6.876462,8.369488,-58.89993,996.4216
2.130052090,0.01588919,-0.4040489,0.9690112,-0.370073,0.4350694,0.7992933,6.876462,8.369488,-58.89993,996.4216
2.132549286,-0.0460779,-0.1656847,0.8463064,-0.3704967,0.4311057,0.7940675,6.876462,8.369488,-58.89993,996.4216
2.137543201,0.0778947,-0.2251212,0.7234321,-0.3710129,0.4325253,0.792147,6.876462,8.369488,-58.89993,996.4216
2.140040398,0.2637565,-0.2250505,0.6620046,-0.3710033,0.4320529,0.7931057,6.876462,8.369488,-58.89993,996.4216
2.145034790,0.3874955,-0.2248904,0.6616079,-0.3647717,0.4384468,0.7892351,6.876462,8.369488,-58.89993,996.4216
2.147533894,0.3873738,-0.1652604,0.4777995,-0.3701504,0.4388358,0.7906685,6.876462,8.369488,-58.89993,996.4216
2.152525902,0.1393405,-0.1651753,0.4162991,-0.3685435,0.4311477,0.7940661,7.243986,8.377412,-58.90069,996.4216
2.157520294,0.4490634,-0.1054936,0.232437,-0.3696181,0.4370404,0.800712,7.243986,8.377412,-58.90069,996.4216
2.160017967,0.1391118,-0.224579,0.5383649,-0.3647893,0.440025,0.7982994,7.243986,8.377412,-58.90069,996.4216
2.165011883,0.3868923,-0.2244192,0.3544069,-0.3739296,0.4320414,0.7969288,7.243986,8.377412,-58.90069,996.4216
2.167509079,0.3867708,-0.3434673,0.5378962,-0.3704845,0.4306719,0.7978919,7.243986,8.377412,-58.90069,996.4216
2.172502995,0.1386989,-0.1050892,0.59872,-0.3719634,0.4310484,0.7921581,7.243986,8.377412,-58.90069,996.424
2.175000191,0.07669321,-0.04549687,0.5373317,-0.3665985,0.4316815,0.7945387,7.243986,8.377412,-58.90069,996.424
2.179994106,0.2624729,-0.04541215,0.5982136,-0.3694854,0.4291855,0.7940806,7.243986,8.377412,-58.90069,996.424
2.184988976,0.07642173,-0.2240615,0.597857,-0.369034,0.431105,0.7916784,7.243986,8.377412,-58.90069,996.424
2.187486172,0.3242461,-0.1048725,0.7812698,-0.3676871,0.4379822,0.7954497,7.243986,8.377412,-58.90069,996.424
2.192480087,0.07621349,-0.04526606,0.658417,-0.3676797,0.4374776,0.7940204,7.243986,8.377412,-58.90069,996.424
2.194977284,0.1381516,-0.2239297,0.6582102,-0.3656753,0.4345949,0.7930844,7.243986,8.377412,-58.90069,996.424
2.199971676,0.1380454,0.0739513,0.4742153,-0.3691647,0.438378,0.7911488,7.243986,8.377412,-58.90069,996.424
2.202468872,0.07603993,-0.1643091,0.5352665,-0.3710298,0.4335023,0.7926177,6.869833,8.722594,-59.7355,996.424
2.207462788,0.01403006,0.01447199,0.4125491,-0.3729712,0.4330201,0.7959659,6.869833,8.722594,-59.7355,996.424
2.209959984,0.1379498,-0.1642105,0.4124195,-0.373444,0.4320133,0.7940627,6.869833,8.722594,-59.7355,996.424
2.214954853,0.01397792,-0.104548,0.656942,-0.370061,0.4340215,0.7935688,6.869833,8.722594,-59.7355,996.4223
2.219948769,0.01396914,0.07417687,0.6565485,-0.3729908,0.4339585,0.7935709,6.869833,8.722594,-59.7355,996.4223
2.222445965,0.01396475,-0.1640836,0.595142,-0.3740244,0.4367784,0.7882971,6.869833,8.722594,-59.7355,996.4223
2.227439880,0.01393651,-0.2830991,0.7171301,-0.3734969,0.4349121,0.7930868,6.869833,8.722594,-59.7355,996.4223
2.229937077,-0.109992,-0.4021288,0.5945044,-0.3701117,0.4369526,0.7949809,6.869833,8.722594,-59.7355,996.4223
2.234930992,-0.109884,-0.4018949,0.7164929,-0.3691347,0.4369801,0.7954578,6.869833,8.722594,-59.7355,996.4223
2.237428665,-0.0478874,-0.4017687,0.5938674,-0.3677236,0.4398976,0.7935255,6.869833,8.722594,-59.7355,996.4223
2.242423058,-0.1717815,-0.2823602,0.7770565,-0.3695482,0.4331645,0.8012172,6.869833,8.722594,-59.7355,996.4223
2.247416973,-0.2336162,-0.3417234,0.5930254,-0.3680817,0.4326076,0.7935777,6.869833,8.722594,-59.7355,996.4223
2.249914169,-0.4194291,-0.2820568,0.7764397,-0.3719361,0.4296119,0.7936013,6.869833,8.722594,-59.7355,996.4223
2.254908562,-0.1713367,-0.6391605,0.5923898,-0.3686359,0.4365311,0.7973714,7.237663,8.746298,-58.90712,996.4247
2.257405758,-0.4191312,-0.4007225,0.5922036,-0.363759,0.4365459,0.7906811,7.237663,8.746298,-58.90712,996.4247
2.262399674,-0.4188679,-0.519552,0.4694504,-0.3681193,0.4351179,0.7997695,7.237663,8.746298,-58.90712,996.4247
2.264896870,-0.2328501,-0.4598294,0.2857023,-0.3665625,0.4297596,0.7959854,7.237663,8.746298,-58.90712,996.4247
2.269890785,-0.1088185,-0.2213034,0.4078848,-0.3695569,0.4336498,0.8012137,7.237663,8.746298,-58.90712,996.4247
2.272388458,-0.2327085,-0.3999118,0.4077567,-0.3675885,0.432689,0.7988312,7.237663,8.746298,-58.90712,996.4247
2.277382851,-0.04673446,-0.2805419,0.5911011,-0.3739076,0.4305275,0.7926406,7.237663,8.746298,-58.90712,996.4247
2.282376766,-0.1087061,-0.2208064,0.5295296,-0.3709056,0.4267468,0.7955318,7.237663,8.746298,-58.90712,996.4247
2.284873962,0.01525221,0.01750019,0.6517636,-0.370531,0.4330533,0.7945313,7.237663,8.746298,-58.90712,996.4247
2.289867878,0.1391279,0.07706721,0.6513734,-0.3666441,0.4340757,0.7921333,7.237663,8.746298,-58.90712,996.4247
2.292365551,0.07712208,-0.1611942,0.712369,-0.3759129,0.4333973,0.7926213,7.237663,8.746298,-58.90712,996.4247
2.297359467,0.262921,-0.2801741,0.5895787,-0.3720064,0.4334813,0.7926184,7.237663,8.746298,-58.90712,996.4247
2.299859524,0.07695209,-0.2800861,0.5893935,-0.3710203,0.4330299,0.7935764,7.237663,8.746298,-58.90712,996.4247
2.304851532,0.1388464,-0.2203883,0.7114428,-0.3661371,0.4331349,0.7935728,6.870139,8.738374,-58.90635,996.4247
2.309845448,0.2627028,-0.04159062,0.5274529,-0.3687401,0.4423546,0.7973298,6.870139,8.738374,-58.90635,996.4247
2.312342644,0.5104686,-0.2798147,0.4660871,-0.3651843,0.434644,0.7959498,6.870139,8.738374,-58.90635,996.4247
2.317336559,0.01460695,-0.2200984,0.4657943,-0.368063,0.4316564,0.7950175,6.870139,8.738374,-58.90635,996.4247
2.319833756,0.2624507,-0.577385,0.465648,-0.3627671,0.4361782,0.797848,6.870139,8.738374,-58.90635,996.4247
2.324828625,-0.1713904,-0.1006789,0.5265172,-0.3681225,0.4350728,0.7964261,6.870139,8.738374,-58.90635,996.4247
2.327325344,0.07651182,-0.1602066,0.4651516,-0.3700688,0.4345197,0.7945206,6.870139,8.738374,-58.90635,996.4247
2.332319737,0.200349,-0.1600685,0.4037168,-0.3710102,0.432564,0.7950127,6.870139,8.738374,-58.90635,996.4247
2.337313652,0.138261,-0.2790865,0.4646634,-0.3690465,0.4321465,0.7969252,6.870139,8.738374,-58.90635,996.4272
2.339810848,0.1382176,-0.2194396,0.5257176,-0.3715168,0.4335112,0.7940509,6.870139,8.738374,-58.90635,996.4272
2.344804764,0.3239781,-0.0406238,0.5865683,-0.369574,0.4340127,0.7921355,6.870139,8.738374,-58.90635,996.4272
2.347302437,0.2619143,-0.1001703,0.4639837,-0.3725208,0.4349267,0.7926084,6.870139,8.738374,-58.90635,996.4272
2.352296829,0.07584396,-0.2787853,0.5248731,-0.3715177,0.4334983,0.7930957,6.858547,9.414665,-58.91813,996.4272
2.354793549,0.07582013,-0.2786977,0.5247082,-0.3691465,0.4374203,0.792111,6.858547,9.414665,-58.91813,996.4272
2.359788418,0.3235236,-0.09988216,0.5243209,-0.3714565,0.4301077,0.7935975,6.858547,9.414665,-58.91813,996.4272
2.362284660,0.2614598,-0.1594101,0.5241562,-0.3724306,0.4295111,0.786915,6.858547,9.414665,-58.91813,996.4272
2.367279530,0.2612956,-0.2783724,0.5238461,-0.3651765,0.4341459,0.794998,6.858547,9.414665,-58.91813,996.4272
2.372273445,0.0752646,-0.2186569,0.5846788,-0.3720723,0.4374153,0.7964117,6.858547,9.414665,-58.91813,996.4272
2.374770641,0.07524095,-0.2185882,0.6456953,-0.3658381,0.4438477,0.7954068,6.858547,9.414665,-58.91813,996.4212
2.379765511,0.26108,-0.456632,0.5228701,-0.3676988,0.4384224,0.7921029,6.858547,9.414665,-58.91813,996.4212
2.382262230,0.1370738,-0.3969292,0.5227058,-0.3652126,0.4360677,0.7935513,6.858547,9.414665,-58.91813,996.4212
2.387256622,0.1990081,-0.3966799,0.5835007,-0.370081,0.4349534,0.7906961,6.858547,9.414665,-58.91813,996.4212
2.389753342,0.01305935,-0.3965553,0.460917,-0.3648354,0.4424129,0.7954165,6.858547,9.414665,-58.91813,996.4212
2.394747734,0.01303168,-0.03896905,0.4606851,-0.3690169,0.4307421,0.8007566,6.858547,9.414665,-58.91813,996.4212
2.399742127,0.07496612,-0.3962817,0.3380145,-0.3638704,0.4434882,0.8016179,6.858547,9.414665,-58.91813,996.4212
2.402239323,-0.1109437,-0.2770386,0.3379083,-0.3680604,0.431695,0.7978832,6.864729,9.038496,-59.29438,996.4212
2.407233715,0.3228606,-0.2769206,0.5212197,-0.3666237,0.4331502,0.7954836,6.864729,9.038496,-59.29438,996.4212
2.409730435,0.198835,-0.336393,0.3986556,-0.3696321,0.4374484,0.7949771,6.864729,9.038496,-59.29438,996.4212
2.414725304,-0.111003,-0.3957035,0.4596054,-0.3719699,0.4315659,0.7945427,6.864729,9.038496,-59.29438,996.4178
2.417221546,0.07491812,-0.3360199,0.3982608,-0.3720146,0.4339731,0.7930926,6.864729,9.038496,-59.29438,996.4178
2.422216416,0.07483213,-0.3357901,0.4591723,-0.3714547,0.4301334,0.795508,6.864729,9.038496,-59.29438,996.4178
2.424713612,-0.1110777,-0.2761253,0.4590281,-0.3695461,0.4325826,0.7940564,6.864729,9.038496,-59.29438,996.4178
2.429707527,0.136821,-0.3950891,0.4587205,-0.3726123,0.440323,0.796869,6.864729,9.038496,-59.29438,996.4178
2.434702396,-0.1730754,-0.216163,0.5808135,-0.3632594,0.4361098,0.7935499,6.864729,9.038496,-59.29438,996.4178
2.437199116,0.07482734,-0.3352138,0.580631,-0.3675864,0.4321071,0.7916704,6.864729,9.038496,-59.29438,996.4178
2.442193508,0.01283772,-0.4541217,0.5802662,-0.3671671,0.4360064,0.7921199,6.864729,9.038496,-59.29438,996.4178
2.444690228,0.07479577,-0.6326569,0.5800839,-0.3652647,0.4389795,0.7935306,6.864729,9.038496,-59.29438,996.4178
2.449684620,-0.1730412,-0.15586,0.3349379,-0.3662066,0.4370173,0.7935451,6.864729,9.038496,-59.29438,996.4178
2.452182293,-0.1729868,-0.2749296,0.4572331,-0.3685929,0.4340982,0.7969111,6.876321,8.362206,-59.28261,996.4178
2.457176209,-0.1109745,-0.3342039,0.4569075,-0.3680352,0.4302263,0.7969384,6.876321,8.362206,-59.28261,996.4237
2.462170601,-0.04894264,-0.3936094,0.3954586,-0.3665633,0.4297467,0.7950302,6.876321,8.362206,-59.28261,996.4237
2.464667320,0.136959,-0.2743672,0.3953344,-0.3675433,0.4302883,0.800759,6.876321,8.362206,-59.28261,996.4237
2.469662190,-0.04891598,-0.09549817,0.6398099,-0.3680937,0.4336556,0.7993022,6.876321,8.362206,-59.28261,996.4237
2.472158432,0.1369857,-0.09546816,0.4560083,-0.3734491,0.4325501,0.7978802,6.876321,8.362206,-59.28261,996.4237
2.477153301,0.01299489,-0.2740113,0.6393032,-0.3627711,0.4361202,0.7935495,6.876321,8.362206,-59.28261,996.4237
2.479650498,-0.04897129,-0.2143659,0.3943016,-0.3651683,0.4336542,0.7945238,6.876321,8.362206,-59.28261,996.4237
2.484644413,0.0749642,-0.09518744,0.5776737,-0.368244,0.441867,0.7963777,6.876321,8.362206,-59.28261,996.4237
2.489639282,0.1988024,-0.2141901,0.2713675,-0.367625,0.4346044,0.7969068,6.876321,8.362206,-59.28261,996.4237
2.492136002,0.260702,-0.3332414,0.3936826,-0.3686873,0.4388416,0.788757,6.876321,8.362206,-59.28261,996.4237
2.497130394,0.07471033,-0.2734728,0.2098539,-0.3676185,0.4340869,0.7945222,6.876321,8.362206,-59.28261,996.422
2.499627113,-0.04923732,-0.2138276,0.2709882,-0.3729917,0.4339456,0.7926157,6.876321,8.362206,-59.28261,996.422
2.504621506,0.07467886,-0.2732338,0.1484368,-0.3667187,0.438495,0.7959232,7.231199,9.107902,-59.29622,996.422
2.507119179,0.1366175,-0.09447008,0.2707905,-0.3710249,0.4335732,0.7978715,7.231199,9.107902,-59.29622,996.422
2.512113094,0.01256855,-0.3921698,0.3318206,-0.3652208,0.4365595,0.7940255,7.231199,9.107902,-59.29622,996.422
2.514610291,0.01256461,-0.3324873,0.3317164,-0.3676706,0.4369987,0.7945014,7.231199,9.107902,-59.29622,996.422
2.519604206,-0.1113675,-0.2727565,0.2091461,-0.3714556,0.4301206,0.7945527,7.231199,9.107902,-59.29622,996.422
2.524599075,0.07454983,-0.1535227,0.3925768,-0.3690561,0.4326188,0.7959665,7.231199,9.107902,-59.29622,996.422
2.527095795,0.07452641,-0.1534745,0.3924535,-0.3710468,0.4344793,0.7930884,7.231199,9.107902,-59.29622,996.422
2.532090187,-0.1113872,-0.1534155,0.3922069,-0.3651641,0.4331044,0.7897511,7.231199,9.107902,-59.29622,996.422
2.534587383,0.01257196,-0.3916045,0.2696833,-0.3681064,0.4340829,0.7950002,7.231199,9.107902,-59.29622,996.4203
2.539581299,0.07448722,-0.2126806,0.3918566,-0.365183,0.4346634,0.7973827,7.231199,9.107902,-59.29622,996.4203
2.542078972,0.01250173,-0.2126138,0.4529337,-0.3709612,0.4296071,0.7916902,7.231199,9.107902,-59.29622,996.4203
2.547072887,0.01249387,-0.3315988,0.45263,-0.3646553,0.4321894,0.793101,7.231199,9.107902,-59.29622,996.4203
2.552067280,0.01248602,-0.09313458,0.4523841,-0.3658719,0.4458019,0.7963482,6.869998,8.731091,-59.28904,996.4203
2.554563999,0.07444419,-0.09310533,0.3298415,-0.3639356,0.4468209,0.7968175,6.869998,8.731091,-59.28904,996.4203
2.559558868,-0.04948783,-0.212128,0.2072339,-0.3668073,0.4433222,0.7939782,6.869998,8.731091,-59.28904,996.4203
2.562056065,-0.1114344,-0.2120614,0.2071688,-0.3632389,0.4351843,0.7969002,6.869998,8.731091,-59.28904,996.4203
2.567049980,-0.04944121,-0.2714126,0.1458577,-0.360342,0.4372143,0.7987946,6.869998,8.731091,-59.28904,996.4203
2.569547176,-0.1733499,-0.211768,0.2070121,-0.3647485,0.4375599,0.795451,6.869998,8.731091,-59.28904,996.4203
2.574541092,-0.173202,-0.5093754,0.2681015,-0.3690913,0.4345536,0.7954751,6.869998,8.731091,-59.28904,996.4227
2.577038288,-0.2970718,-0.449656,0.1456168,-0.3695771,0.4339676,0.7887923,6.869998,8.731091,-59.28904,996.4227
2.582032680,-0.04905627,-0.2112299,0.02314416,-0.3599489,0.4419553,0.7896849,6.869998,8.731091,-59.28904,996.4227
2.587027073,-0.04904492,-0.1515753,0.08432981,-0.3647412,0.4370553,0.7940217,6.869998,8.731091,-59.28904,996.4227
2.589524269,-0.1109916,-0.1515277,-0.03809708,-0.3680964,0.4336169,0.7964365,6.869998,8.731091,-59.28904,996.4227
2.594518185,0.07494493,-0.03231392,0.1455082,-0.3675963,0.4331872,0.7997829,6.869998,8.731091,-59.28904,996.4227
2.597015858,-0.172927,-0.09186307,0.2066627,-0.3666292,0.4336807,0.7988235,6.869998,8.731091,-59.28904,996.4227
2.602009773,-0.1108562,-0.151346,0.02297074,-0.3695782,0.4345624,0.7969083,6.869974,8.729877,-59.35282,996.4227
2.604506969,-0.04885933,-0.3299763,0.2065641,-0.3666702,0.4355316,0.792123,6.869974,8.729877,-59.35282,996.4227
2.609500885,-0.1107518,-0.1511098,0.2064344,-0.366197,0.4365449,0.7945038,6.869974,8.729877,-59.35282,996.4227
2.614495754,-0.4204732,-0.1509962,0.2674856,-0.3691278,0.436469,0.7935508,6.869974,8.729877,-59.35282,996.4227
2.616992950,-0.2964169,-0.1509487,0.2062014,-0.3691863,0.4398983,0.7959146,6.869974,8.729877,-59.35282,996.4227
2.621986866,-0.4821754,-0.2103945,0.2060527,-0.364659,0.4327456,0.7983513,6.869974,8.729877,-59.35282,996.4227
2.624484062,-0.2961376,-0.1507691,0.1447877,-0.3662348,0.438441,0.7911466,6.869974,8.729877,-59.35282,996.4227
2.629477978,-0.1720858,-0.4484335,0.1446583,-0.3701765,0.4402917,0.7906581,6.869974,8.729877,-59.35282,996.4227
2.631975174,-0.1720317,-0.5078519,0.08341266,-0.3622237,0.4327079,0.7916629,6.869974,8.729877,-59.35282,996.4227
2.636969566,-0.109981,-0.3288737,-0.1002211,-0.3647468,0.4375857,0.7973616,6.869974,8.729877,-59.35282,996.4227
2.639466762,-0.3577949,-0.3883296,0.08341097,-0.3705597,0.4344705,0.7916552,6.869974,8.729877,-59.35282,996.4227
2.644461155,-0.1097412,-0.2689858,-0.03898415,-0.3656983,0.4360959,0.7964174,6.869974,8.729877,-59.35282,996.4227
2.649455070,-0.1716149,-0.2092014,-0.03895966,-0.3660837,0.4302425,0.7950264,6.869974,8.729877,-59.35282,996.4227
2.651952743,-0.04763677,-0.3282543,0.02225278,-0.3666041,0.4322119,0.7978786,7.237522,8.739016,-59.2898,996.4227
2.656946659,0.01439418,-0.2089107,0.1446007,-0.3680891,0.4331123,0.7950071,7.237522,8.739016,-59.2898,996.4234
2.659443855,-0.1714966,-0.1492858,0.1445553,-0.3636978,0.4331552,0.7911829,7.237522,8.739016,-59.2898,996.4234
2.664437771,-0.04750363,-0.3277951,-0.03911687,-0.3691169,0.4360159,0.7959423,7.237522,8.739016,-59.2898,996.4234
2.666934967,-0.1094508,-0.2681328,0.02209562,-0.3642524,0.4370722,0.7944989,7.237522,8.739016,-59.2898,996.4234
2.671929836,0.1384469,-0.2084238,-0.1615381,-0.3681534,0.4364578,0.791162,7.237522,8.739016,-59.2898,996.4234
2.676923752,-0.04752639,-0.3273927,0.02210632,-0.3671111,0.4331526,0.7964392,7.237522,8.739016,-59.2898,996.4234
2.679420948,-0.04751145,-0.148612,0.02209938,-0.3666927,0.437039,0.7959335,7.237522,8.739016,-59.2898,996.4234
2.684414864,0.07640365,-0.2676559,0.02210472,-0.3705059,0.4315845,0.7935864,7.237522,8.739016,-59.2898,996.4234
2.686912537,-0.04754454,-0.3271312,0.2668986,-0.3695275,0.4316313,0.7954962,7.237522,8.739016,-59.2898,996.4234
2.691906452,0.1383327,-0.08870712,0.08320721,-0.3657114,0.4365168,0.7916378,7.237522,8.739016,-59.2898,996.4234
2.694403648,0.1382892,-0.08867925,0.02198087,-0.3691591,0.4378476,0.787809,7.237522,8.739016,-59.2898,996.4234
2.699398041,0.01427816,-0.1482203,0.2055869,-0.3701091,0.4369913,0.7978466,7.237522,8.739016,-59.2898,996.4217
2.704391956,0.1381934,-0.1480897,0.02187636,-0.3682171,0.4404239,0.7973433,6.141108,8.337859,-59.72754,996.4217
2.706889629,0.07618786,-0.0884839,0.08306969,-0.3681507,0.4364965,0.7940277,6.141108,8.337859,-59.72754,996.4217
2.711883545,0.1380826,-0.1479689,0.1442177,-0.370126,0.4379683,0.7983173,6.141108,8.337859,-59.72754,996.4217
2.714380741,0.1380392,-0.1479224,0.021772,-0.3671393,0.4345763,0.7940407,6.141108,8.337859,-59.72754,996.4217
2.719374657,0.2619351,0.03086712,0.3277593,-0.3675751,0.4316605,0.7945395,6.141108,8.337859,-59.72754,996.4217
2.721871853,0.385777,-0.08826118,0.2664562,-0.3622211,0.4327466,0.7945286,6.141108,8.337859,-59.72754,996.4217
2.726866722,0.2616299,0.2095721,0.08274584,-0.3623769,0.4414884,0.794944,6.141108,8.337859,-59.72754,996.4217
2.729363441,0.1995856,-0.08829029,0.14392,-0.3667305,0.4389351,0.7925764,6.141108,8.337859,-59.72754,996.4217
2.734357834,0.1994408,0.2691584,0.02144846,-0.3641561,0.4317469,0.7954922,6.141108,8.337859,-59.72754,996.4217
2.739351749,0.1993155,0.09034884,-0.03976522,-0.3719938,0.433054,0.7969205,6.141108,8.337859,-59.72754,996.4183
2.741849422,0.4471012,-0.02879815,0.1438479,-0.3642894,0.4389812,0.792097,6.141108,8.337859,-59.72754,996.4183
2.746843815,0.5707446,0.09031983,0.2049769,-0.3696339,0.4374227,0.7930666,6.141108,8.337859,-59.72754,996.4183
2.749340534,0.384679,0.1498508,0.1437123,-0.3691008,0.435026,0.7945164,6.141108,8.337859,-59.72754,996.4183
2.754334927,0.5083225,0.09017861,0.1436028,-0.3686542,0.4374888,0.7964092,6.496151,9.092052,-59.29469,996.4183
2.756831646,0.3842387,0.09015028,0.1435577,-0.3666737,0.4354801,0.7883021,6.496151,9.092052,-59.29469,996.4183
2.761826515,0.4459789,0.09007493,0.2658487,-0.3667258,0.4383919,0.7882813,6.496151,9.092052,-59.29469,996.4183
2.766820431,0.4457571,-0.02906283,-0.04028085,-0.3647051,0.4351334,0.7954683,6.496151,9.092052,-59.29469,996.4183
2.769317627,0.3216929,-0.088613,0.2045326,-0.362218,0.4327917,0.7978719,6.496151,9.092052,-59.29469,996.4183
2.774312496,0.2595287,0.1496986,0.2656043,-0.3656758,0.4345884,0.7926068,6.496151,9.092052,-59.29469,996.4183
2.776808739,0.1974851,0.09009225,0.2043207,-0.3677318,0.4403894,0.7939996,6.496151,9.092052,-59.29469,996.4222
2.781803608,0.1973805,0.03058862,0.08181114,-0.3646982,0.4346223,0.7935613,6.496151,9.092052,-59.29469,996.4222
2.784300327,0.2592805,0.030579,0.2041858,-0.364167,0.4322,0.7931007,6.496151,9.092052,-59.29469,996.4222
2.789294720,0.1352324,-0.2076587,0.2652962,-0.3700249,0.4320997,0.7950155,6.496151,9.092052,-59.29469,996.4222
2.794288635,0.07322429,-0.445728,0.1427484,-0.3662304,0.4385054,0.7959228,6.496151,9.092052,-59.29469,996.4222
2.796786308,0.07320128,-0.3860287,0.1427035,-0.3677136,0.4394316,0.7949618,6.496151,9.092052,-59.29469,996.4222
2.801780701,0.1351758,-0.0880271,0.02023271,-0.3675802,0.4321973,0.798357,6.502309,8.714669,-59.73473,996.4222
2.804277420,0.1970954,-0.1475587,0.1426268,-0.3681342,0.435513,0.7930794,6.502309,8.714669,-59.73473,996.4222
2.809271812,0.07310581,-0.1474848,0.1425756,-0.3720298,0.4349759,0.7954738,6.502309,8.714669,-59.73473,996.4222
2.811768532,0.3209312,-0.2069977,0.1425308,-0.36625,0.4394438,0.7935278,6.502309,8.714669,-59.73473,996.4222
2.816763401,0.1348823,-0.206849,-0.1023019,-0.3682531,0.4423458,0.7958966,6.502309,8.714669,-59.73473,996.4222
2.819260597,0.2587641,-0.08766539,-0.1634699,-0.3633391,0.4410658,0.8011572,6.502309,8.714669,-59.73473,996.4222
2.824254513,0.258621,-0.02805101,-0.04096682,-0.3628105,0.4386047,0.7978308,6.502309,8.714669,-59.73473,996.4222
2.829249382,0.2584585,-0.08763012,-0.1020836,-0.3666264,0.4331116,0.7926179,6.502309,8.714669,-59.73473,996.4222
2.831745625,0.2583773,0.03151602,-0.1020515,-0.36912,0.4359708,0.792599,6.502309,8.714669,-59.73473,996.4222
2.836740494,0.3201187,-0.08760367,-0.2855304,-0.3701269,0.4379554,0.7973621,6.502309,8.714669,-59.73473,996.4222
2.839237213,0.1960939,-0.2066948,-0.2854407,-0.3675929,0.4326246,0.794055,6.502309,8.714669,-59.73473,996.4222
2.844231605,0.1339697,0.09119418,0.1430632,-0.3646835,0.4336131,0.7907025,6.502309,8.714669,-59.73473,996.4222
2.846729279,0.381776,0.09116553,0.02061783,-0.3676359,0.4350575,0.7945153,6.502309,8.714669,-59.73473,996.4222
2.851723194,0.257612,0.09107083,0.08178586,-0.3666206,0.4331954,0.7988269,6.869998,8.731091,-59.28904,996.4222
2.856717586,0.3813743,0.03143561,0.1429539,-0.3676962,0.4384611,0.7949687,6.869998,8.731091,-59.28904,996.4263
2.859214306,0.2573303,-0.02813356,0.02050859,-0.3667058,0.4374599,0.7911539,6.869998,8.731091,-59.28904,996.4263
2.864208698,0.3811318,0.0314247,-0.1018278,-0.3676323,0.435109,0.7983361,6.869998,8.731091,-59.28904,996.4263
2.866705418,0.1951258,0.03141483,0.0818048,-0.3661619,0.4346102,0.7949952,6.869998,8.731091,-59.28904,996.4263
2.871700287,0.31883,0.2696323,0.1429536,-0.3650967,0.429804,0.7969396,6.869998,8.731091,-59.28904,996.4263
2.874197483,0.2567678,0.2099883,0.2653091,-0.3671476,0.435068,0.7945149,6.869998,8.731091,-59.28904,996.4263
2.879191399,0.3804917,0.09081262,-0.04076245,-0.3680795,0.4326398,0.7959658,6.869998,8.731091,-59.28904,996.4263
2.881688595,0.1944859,0.1503434,0.08165076,-0.3647065,0.4351141,0.7940355,6.869998,8.731091,-59.28904,996.4263
2.886682510,0.3182101,0.1502489,0.1427997,-0.3643067,0.4399518,0.7920901,6.869998,8.731091,-59.28904,996.4263
2.891677380,0.07027857,0.2097326,0.02032878,-0.3665509,0.4287053,0.7897833,6.869998,8.731091,-59.28904,996.4263
2.894174576,0.07025649,0.09054807,-0.102078,-0.3651427,0.4321918,0.7940566,6.869998,8.731091,-59.28904,996.4263
2.899168491,0.3180218,-0.08818672,0.08158672,-0.3628722,0.4419889,0.7968514,6.869998,8.731091,-59.28904,996.4263
2.901666164,0.2559598,-0.02859971,0.08156109,-0.365256,0.4384942,0.793534,6.86351,9.09148,-59.74192,996.4263
2.906660080,0.1938174,0.03094013,-0.1020715,-0.368218,0.4404111,0.796388,6.86351,9.09148,-59.74192,996.4263
2.909157276,0.1317945,-0.08818819,-0.1020395,-0.3696087,0.4359539,0.7921217,6.86351,9.09148,-59.74192,996.4263
2.914151192,0.317559,0.1501044,0.08154835,-0.3637116,0.4341774,0.7949969,6.86351,9.09148,-59.74192,996.4263
2.919146061,0.1934743,-0.02864907,0.1427165,-0.3633188,0.4395262,0.7949585,6.86351,9.09148,-59.74192,996.4263
2.921642303,0.3173377,0.2691564,0.0814715,-0.364232,0.4361467,0.7978491,6.86351,9.09148,-59.74192,996.4263
2.926637173,0.2552346,-0.08829361,0.1426205,-0.363242,0.4351391,0.7935568,6.86351,9.09148,-59.74192,996.4263
2.929134369,0.1931923,0.09041202,0.2037759,-0.3681768,0.4379524,0.7940173,6.86351,9.09148,-59.74192,996.4263
2.934128284,0.255033,0.09029909,0.08126673,-0.3657586,0.4394994,0.7968708,6.86351,9.09148,-59.74192,996.4263
2.936625481,0.5028013,-0.02884788,0.1424414,-0.368158,0.4370011,0.795457,6.86351,9.09148,-59.74192,996.4246
2.941619873,0.2546565,0.09025143,0.1423519,-0.3700692,0.4345132,0.7940429,6.86351,9.09148,-59.74192,996.4246
2.946614265,0.254516,0.149754,0.1423202,-0.3701529,0.4394113,0.7973517,6.86351,9.09148,-59.74192,996.4246
2.949111462,0.192474,0.2092663,0.1422755,-0.3666264,0.4331116,0.7926179,6.86351,9.09148,-59.74192,996.4246
2.954105377,0.3782199,-0.1481274,-0.04137607,-0.3671658,0.4360257,0.7935528,6.514955,7.976897,-59.72189,996.4246
2.956603050,0.1922148,0.03059701,0.2034377,-0.3677107,0.4388626,0.7887562,6.514955,7.976897,-59.72189,996.4246
2.961596966,0.1300735,0.2092744,0.01974778,-0.3671593,0.4355082,0.7911681,6.514955,7.976897,-59.72189,996.4246
2.964094162,0.1919947,-0.02902855,-0.04145863,-0.3677332,0.44037,0.7925667,6.514955,7.976897,-59.72189,996.4246
2.969088078,0.2538362,0.03062383,0.2033105,-0.3719859,0.4325558,0.7959687,6.514955,7.976897,-59.72189,996.4246
2.971585274,0.2537565,-0.08850439,0.1420465,-0.3705544,0.4345478,0.7973866,6.514955,7.976897,-59.72189,996.4246
2.976580143,0.1297313,-0.1479894,0.1419957,-0.3686261,0.4354509,0.7892587,6.514955,7.976897,-59.72189,996.427
2.981574059,0.1296303,-0.02883394,0.1418872,-0.3663239,0.4432617,0.788724,6.514955,7.976897,-59.72189,996.427
2.984071255,0.005665405,-0.08838418,0.08064248,-0.3686551,0.4374759,0.795454,6.514955,7.976897,-59.72189,996.427
2.989065170,-0.2421087,-0.1478505,0.08057259,-0.3653041,0.441464,0.7978118,6.514955,7.976897,-59.72189,996.427
2.991562366,-0.05614632,-0.1478041,0.08054727,-0.3648111,0.4409312,0.7935164,6.514955,7.976897,-59.72189,996.427
2.996556759,0.00585104,0.0310228,0.08049667,-0.365183,0.4346634,0.7973827,6.514955,7.976897,-59.72189,996.427
2.999053955,-0.118075,-0.08810554,0.01927118,-0.3652603,0.4390439,0.7983067,6.514955,7.976897,-59.72189,996.427
3.004048347,-0.1799434,0.03106841,0.08045927,-0.3691391,0.4369156,0.7906816,7.250168,8.001244,-59.27695,996.427
3.009042263,-0.2418898,0.09060819,-0.0420109,-0.367599,0.4331486,0.7969173,7.250168,8.001244,-59.27695,996.427
3.011539936,-0.05592754,-0.02853888,0.0192025,-0.36568,0.4351382,0.7973796,7.250168,8.001244,-59.27695,996.427
3.016533852,0.1299549,0.03103836,0.08037141,-0.3665968,0.4317073,0.7964492,7.250168,8.001244,-59.27695,996.4253
3.019031048,0.1299141,0.0905879,0.1415464,-0.3715077,0.4330323,0.794532,7.250168,8.001244,-59.27695,996.4253
3.024024963,0.2537956,-0.08816562,0.2026769,-0.3637281,0.4351608,0.7959452,7.250168,8.001244,-59.27695,996.4253
3.026524544,0.06782959,-0.02857862,0.2026132,-0.3670474,0.4291865,0.7902579,7.250168,8.001244,-59.27695,996.4253
3.031517029,0.005844364,0.09053922,0.2024859,-0.3662674,0.4404144,0.7935209,7.250168,8.001244,-59.27695,996.4253
3.034013748,0.1297667,-0.08816712,0.1412221,-0.3687089,0.4403619,0.7935227,7.250168,8.001244,-59.27695,996.4253
3.039008141,-0.1181437,0.1501068,0.07997163,-0.3667817,0.4418598,0.7935109,7.250168,8.001244,-59.27695,996.4253
3.044002056,0.1297594,0.2095905,0.1411408,-0.3704985,0.4310799,0.792157,7.250168,8.001244,-59.27695,996.4253
3.046499729,0.1916807,0.1499653,0.1410965,-0.3667644,0.4408892,0.7935178,7.250168,8.001244,-59.27695,996.4253
3.051493645,0.06767506,-0.1478693,0.1410271,-0.3647632,0.4385692,0.7983098,6.876462,8.369488,-58.89993,996.4253
3.053990841,0.1296159,-0.2073821,-0.04261785,-0.3647285,0.436628,0.7983236,6.876462,8.369488,-58.89993,996.4253
3.058985233,0.00562975,-0.08822678,0.07980933,-0.3696417,0.4379209,0.7940184,6.876462,8.369488,-58.89993,996.4236
3.061481953,0.2534764,-0.2073177,0.1409845,-0.3700236,0.432119,0.7964483,6.876462,8.369488,-58.89993,996.4236
3.066476822,0.005507672,0.1500561,0.2632771,-0.3657169,0.4370472,0.7949776,6.876462,8.369488,-58.89993,996.4236
3.071470737,0.005562613,-0.1477598,0.0795303,-0.3648207,0.4414036,0.7925577,6.876462,8.369488,-58.89993,996.4236
3.073967934,0.06752296,-0.2072727,0.3243061,-0.3652213,0.436553,0.7935479,6.876462,8.369488,-58.89993,996.4236
3.078961849,-0.05644365,-0.1476767,0.2017404,-0.3657078,0.4365683,0.7954587,6.876462,8.369488,-58.89993,996.4236
3.081459045,0.005536178,-0.2667489,0.2628773,-0.3661478,0.4342022,0.8007302,6.876462,8.369488,-58.89993,996.4236
3.086453915,-0.1183331,-0.02840029,0.2626929,-0.3623215,0.438014,0.7892367,6.876462,8.369488,-58.89993,996.4236
3.088950634,0.1915146,-0.14751,0.2626103,-0.3661723,0.4350697,0.7930813,6.876462,8.369488,-58.89993,996.4236
3.093945026,-0.05643467,-0.3260765,0.323684,-0.3637706,0.4376003,0.7968832,6.876462,8.369488,-58.89993,996.4236
3.098938942,-0.05637975,-0.206753,0.3235191,-0.363429,0.4458737,0.7977793,6.876462,8.369488,-58.89993,996.4218
3.101436615,-0.05636204,-0.08756948,0.2010171,-0.3677036,0.4389657,0.796398,6.869974,8.729877,-59.35282,996.4218
3.106430531,-0.1802508,-0.02797388,0.0785481,-0.3628245,0.4390127,0.7920959,6.869974,8.729877,-59.35282,996.4218
3.108927727,-0.2421563,-0.08752439,0.262124,-0.3653086,0.4413996,0.7930357,6.869974,8.729877,-59.35282,996.4218
3.113922119,0.06774791,-0.1469726,-0.0440032,-0.3652026,0.4356018,0.7949876,6.869974,8.729877,-59.35282,996.4218
3.116418839,-0.1181596,-0.0278078,0.01721083,-0.3672526,0.4408787,0.7935182,6.869974,8.729877,-59.35282,996.4218
3.121413708,-0.1180659,-0.08731221,0.01723847,-0.3623184,0.4380591,0.7925801,6.869974,8.729877,-59.35282,996.4218
3.123910904,-0.1180288,-0.2064034,-0.1051673,-0.3672048,0.4385166,0.7983116,6.869974,8.729877,-59.35282,996.4218
3.128904820,0.1298937,0.09146665,0.01731835,-0.3666684,0.4355574,0.7940335,6.869974,8.729877,-59.35282,996.4218
3.133899689,0.005965741,0.0318686,-0.04389273,-0.3695664,0.4341222,0.8002551,6.869974,8.729877,-59.35282,996.4218
3.136395931,0.06792596,-0.02770071,-0.1050791,-0.3725328,0.4359746,0.7983329,6.869974,8.729877,-59.35282,996.4218
3.141390801,0.06786382,-0.2063799,0.01736805,-0.3681311,0.4355581,0.7964227,6.869974,8.729877,-59.35282,996.4225
3.143892765,0.0678425,-0.02763718,0.01736259,-0.3641579,0.4317211,0.7935817,6.869974,8.729877,-59.35282,996.4225
3.148881912,0.06778041,0.2701393,0.1397713,-0.3662934,0.4418703,0.7935106,6.869974,8.729877,-59.35282,996.4225
3.151379108,-0.05616506,0.2700544,0.0785272,-0.3671763,0.4364853,0.7916389,7.60488,8.738443,-59.73703,996.4225
3.156373501,0.06777494,-0.2660928,0.07847787,-0.3671384,0.4345891,0.794996,7.60488,8.738443,-59.73703,996.4225
3.161367893,0.06769343,-0.02776331,0.0784478,-0.3627742,0.4360752,0.7902062,7.60488,8.738443,-59.73703,996.4225
3.163864613,-0.05625202,0.03180471,0.01722295,-0.3637137,0.4347593,0.8021578,7.60488,8.738443,-59.73703,996.4225
3.168859005,0.005687011,0.03178474,0.07841233,-0.3656918,0.4355784,0.7940328,7.60488,8.738443,-59.73703,996.4225
3.171355724,-0.05627687,0.03177475,0.07838769,-0.3622865,0.436687,0.7987995,7.60488,8.738443,-59.73703,996.4225
3.176350594,0.1296253,0.150836,0.2619006,-0.3646548,0.4321959,0.7935786,7.60488,8.738443,-59.73703,996.4225
3.178849697,0.3154708,0.1507886,0.1394179,-0.3637555,0.4365974,0.794502,7.60488,8.738443,-59.73703,996.4208
3.183841705,-0.05648042,0.2102906,0.2005305,-0.3631616,0.4308037,0.795976,7.60488,8.738443,-59.73703,996.4208
3.188836575,0.3772508,0.3293145,0.200443,-0.3632393,0.4351778,0.7964225,7.60488,8.738443,-59.73703,996.4208
3.191332817,0.3771323,0.03141453,0.1391798,-0.3646886,0.43415,0.79452,7.60488,8.738443,-59.73703,996.4208
3.196327686,0.1910091,0.0909541,0.2614928,-0.3682148,0.4404562,0.7997314,7.60488,8.738443,-59.73703,996.4208
3.198824406,0.128987,0.03136623,0.3226109,-0.3672166,0.4389568,0.7949648,7.60488,8.738443,-59.73703,996.4208
3.203818798,0.128867,0.1504464,0.2612464,-0.365187,0.4346054,0.7930841,7.237357,8.730518,-59.73626,996.4208
3.206316471,0.3766749,-0.02827875,0.3223646,-0.3642629,0.4375318,0.792585,7.237357,8.730518,-59.73626,996.4208
3.211310387,0.06660832,0.1504169,0.3221621,-0.3648523,0.4433899,0.7958872,7.237357,8.730518,-59.73626,996.4208
3.213807583,0.1905116,-0.02830824,0.1996605,-0.367592,0.4326375,0.7950102,7.237357,8.730518,-59.73626,996.4208
3.218801498,0.1284493,0.2098906,0.07715383,-0.360478,0.4444099,0.7925336,7.237357,8.730518,-59.73626,996.4233
3.223795891,0.1283102,0.03113698,0.1994673,-0.3652999,0.4409143,0.7930391,7.237357,8.730518,-59.73626,996.4233
3.226292610,0.1282699,0.0311272,0.1382045,-0.36234,0.4395794,0.7973459,7.237357,8.730518,-59.73626,996.4233
3.231287479,0.06620773,0.03108893,0.01575568,-0.3671905,0.437501,0.7949752,7.237357,8.730518,-59.73626,996.4233
3.233784676,0.004224841,0.03107917,0.01575073,-0.3651732,0.4335833,0.78927,7.237357,8.730518,-59.73626,996.4233
3.238778591,0.1901085,-0.02853708,-0.04547859,-0.3632979,0.4386072,0.7987864,7.237357,8.730518,-59.73626,996.4233
3.241275787,0.06612455,0.09059048,0.01573589,-0.3638574,0.4424532,0.7968487,7.237357,8.730518,-59.73626,996.4233
3.246269703,0.1899877,0.09049615,0.1993266,-0.3642411,0.4366256,0.7973681,7.237357,8.730518,-59.73626,996.4233
3.251264572,0.2518694,0.2095766,0.07683944,-0.3648149,0.4414874,0.7987667,7.243821,8.368916,-59.34716,996.4233
3.253761292,0.06590399,0.2095108,0.1380155,-0.3666853,0.4365344,0.7945042,7.243821,8.368916,-59.34716,996.4233
3.258755684,0.2517294,0.2689759,0.137948,-0.3685725,0.4331726,0.8002613,7.243821,8.368916,-59.34716,996.4198
3.261253357,0.1277261,0.3284507,0.1991049,-0.3685859,0.4342012,0.8045529,7.243821,8.368916,-59.34716,996.4198
3.266247273,0.1896664,0.03046654,0.2602185,-0.3603079,0.4346524,0.7887819,7.243821,8.368916,-59.34716,996.4198
3.268744469,0.313531,0.2686942,0.01533591,-0.3676746,0.4369407,0.7902029,7.243821,8.368916,-59.34716,996.4198
3.273738384,0.1274672,0.03034431,0.3212888,-0.3647352,0.4365313,0.7911594,7.243821,8.368916,-59.34716,996.4198
3.278732777,0.3132734,0.2089657,0.1375056,-0.3686702,0.4384787,0.7978351,7.243821,8.368916,-59.34716,996.4198
3.281230450,0.1272887,0.1493408,0.1986626,-0.3687953,0.4452213,0.7939658,7.243821,8.368916,-59.34716,996.4198
3.286224365,0.251094,-0.0889154,0.07613741,-0.3570776,0.4454477,0.7920466,7.243821,8.368916,-59.34716,996.4198
3.288721561,0.06512883,-0.08888747,0.2597141,-0.3623682,0.4410031,0.7949474,7.243821,8.368916,-59.34716,996.4198
3.293715477,0.06514632,-0.02925362,-0.04637317,-0.3691616,0.4384231,0.7944922,7.243821,8.368916,-59.34716,996.4198
3.296212673,0.127088,-0.08880372,0.1984422,-0.3653108,0.4413674,0.7906476,7.243821,8.368916,-59.34716,996.4198
3.301207066,0.1269886,-0.08871052,0.01473616,-0.3647724,0.439048,0.7978287,6.876462,8.369488,-58.89993,996.4222
3.303704262,-0.2448238,0.08999525,0.1983321,-0.364729,0.4366215,0.797846,6.876462,8.369488,-58.89993,996.4222
3.308698654,0.003178369,-0.02916117,0.1370073,-0.3652057,0.4355567,0.7916443,6.876462,8.369488,-58.89993,996.4222
3.313692570,0.003176372,0.03041645,0.1981215,-0.363749,0.4360799,0.7921174,6.876462,8.369488,-58.89993,996.4222
3.316190243,-0.1207488,-0.148271,0.3204596,-0.363794,0.4390948,0.7997385,6.876462,8.369488,-58.89993,996.4222
3.321184158,-0.2445777,0.2090844,0.442678,-0.3675769,0.4316347,0.792629,6.876462,8.369488,-58.89993,996.4222
3.323681355,-0.05861456,-0.0887778,0.4425389,-0.3695192,0.4311396,0.795022,6.876462,8.369488,-58.89993,996.4222
3.328675270,0.003345424,0.2685776,0.5646036,-0.3701516,0.4394307,0.7987846,6.876462,8.369488,-58.89993,996.4222
3.331172466,-0.244504,0.3280526,0.5644262,-0.3602024,0.4288482,0.7902563,6.876462,8.369488,-58.89993,996.4222
3.336167336,0.3131917,0.03008739,0.4416905,-0.3658111,0.4424048,0.7963724,6.876462,8.369488,-58.89993,996.4222
3.338664055,0.127207,0.3278745,0.5639521,-0.3702965,0.4477194,0.8015915,6.876462,8.369488,-58.89993,996.417
3.343658447,-0.1206629,0.08937513,0.7471215,-0.3684976,0.4281457,0.7874001,6.876462,8.369488,-58.89993,996.417
3.348652363,0.0652213,0.02977839,0.8690525,-0.3682306,0.4408384,0.792086,6.876462,8.369488,-58.89993,996.417
3.351149559,-0.2446096,0.2084469,0.9299797,-0.3652418,0.4374785,0.7901976,6.86351,9.09148,-59.74192,996.417
3.356143951,-0.2444365,0.208316,0.9293377,-0.3642685,0.4380622,0.7959248,6.86351,9.09148,-59.74192,996.417
3.358641148,-0.2443597,0.2678098,0.8678457,-0.3662344,0.4384475,0.7916243,6.86351,9.09148,-59.74192,996.417
3.363635540,-0.2441867,0.208101,0.9285006,-0.3667496,0.43988,0.790659,6.86351,9.09148,-59.74192,996.417
3.366132259,-0.3060721,0.02935774,0.8670087,-0.3681986,0.4388585,0.7892341,6.86351,9.09148,-59.74192,996.417
3.371127129,-0.3678224,0.3271171,0.9276835,-0.362202,0.4318018,0.796446,6.86351,9.09148,-59.74192,996.417
3.376121044,-0.0578004,0.2077556,0.9883009,-0.3643613,0.4434391,0.7987525,6.86351,9.09148,-59.74192,996.417
3.378618240,-0.3675927,-0.03054691,0.9879904,-0.36492,0.447298,0.79777,6.86351,9.09148,-59.74192,996.4153
3.383612156,-0.3673618,0.1481315,0.8649501,-0.3701317,0.4378846,0.7921082,6.86351,9.09148,-59.74192,996.4153
3.386109352,-0.4292084,0.2672035,0.9258785,-0.3647074,0.4351012,0.7930803,6.86351,9.09148,-59.74192,996.4153
3.391104221,-0.3049757,0.4456761,1.108878,-0.3667201,0.4384756,0.7944903,6.86351,9.09148,-59.74192,996.4153
3.393600941,-0.366842,0.4455361,1.10853,-0.37003,0.4326365,0.798833,6.86351,9.09148,-59.74192,996.4153
3.398595333,-0.4285347,0.147441,1.107834,-0.3679272,0.4238465,0.7917295,6.86351,9.09148,-59.74192,996.4153
3.403589249,-0.1184939,-0.0313295,1.107157,-0.3650942,0.4292285,0.7902564,6.869974,8.729877,-59.35282,996.4153
3.406086445,-0.2423809,-0.1504383,1.168009,-0.3667209,0.4384627,0.7935351,6.869974,8.729877,-59.35282,996.4153
3.411080837,-0.3042102,0.3260558,0.9836748,-0.3583571,0.43527,0.7954636,6.869974,8.729877,-59.35282,996.4153
3.413578034,-0.3041146,-0.2100803,1.166966,-0.3633402,0.4404388,0.790653,6.869974,8.729877,-59.35282,996.4153
3.418572426,-0.2419809,-0.09084846,1.043852,-0.3672197,0.4389117,0.7916216,6.869974,8.729877,-59.35282,996.4174
3.421069145,-0.1179807,-0.03126062,0.982324,-0.3643758,0.4438406,0.79254,6.869974,8.729877,-59.35282,996.4174
3.426064015,-0.3656966,-0.03122228,1.226488,-0.3677817,0.4433334,0.7963669,6.869974,8.729877,-59.35282,996.4174
3.431057930,-0.2416011,0.08785981,0.9197938,-0.3652331,0.4369932,0.7902011,6.869974,8.729877,-59.35282,996.4174
3.433555126,-0.3654493,0.0878322,0.8583047,-0.3647989,0.4404975,0.7973408,6.869974,8.729877,-59.35282,996.4174
3.438549519,-0.1173909,-0.03136028,0.7966037,-0.3643459,0.4418286,0.7873001,6.869974,8.729877,-59.35282,996.4174
3.441046238,-0.05539189,-0.2100283,0.8575537,-0.3628948,0.4428822,0.791113,6.869974,8.729877,-59.35282,996.4174
3.446041107,-0.05531816,-0.03125591,0.6122718,-0.3653268,0.4423573,0.7920735,6.869974,8.729877,-59.35282,996.4174
3.448537827,0.1305855,-0.2694833,0.6732796,-0.3638792,0.4433594,0.7920655,6.869974,8.729877,-59.35282,996.4174
3.453532219,-0.3650375,0.02848251,0.6116372,-0.3663204,0.4433133,0.7925449,7.243986,8.377412,-58.90069,996.4174
3.456029415,-0.1170745,-0.1502043,0.4278445,-0.3643675,0.4433489,0.7920659,7.243986,8.377412,-58.90069,996.4174
3.461023808,-0.3028678,-0.1500913,0.4275373,-0.3608665,0.4385115,0.7877994,7.243986,8.377412,-58.90069,996.4157
3.466018200,-0.1788117,-0.2094814,0.2436873,-0.3605152,0.4469267,0.799203,7.243986,8.377412,-58.90069,996.4157
3.468514919,-0.1167934,-0.3285342,0.1824106,-0.3604123,0.4410837,0.7978116,7.243986,8.377412,-58.90069,996.4157
3.473509312,-0.426511,-0.1496686,0.05989556,-0.3638202,0.4399365,0.7901793,7.243986,8.377412,-58.90069,996.4157
3.476006031,-0.1785287,-0.2687402,0.1210769,-0.3628483,0.4405008,0.7944736,7.243986,8.377412,-58.90069,996.4157
3.481000900,-0.1784166,-0.08993092,-0.06256127,-0.3637459,0.436125,0.7954607,7.243986,8.377412,-58.90069,996.4157
3.483498097,-0.2403226,-0.08990267,-0.1237418,-0.3651483,0.4327222,0.7973965,7.243986,8.377412,-58.90069,996.4157
3.488492012,0.007598886,-0.2089648,-0.06248311,-0.3613638,0.439594,0.7968675,7.243986,8.377412,-58.90069,996.4157
3.493486881,-0.05438745,-0.2683367,-0.2460252,-0.3627918,0.4376535,0.7992706,7.243986,8.377412,-58.90069,996.4157
3.495983124,-0.2402566,-0.2682524,-0.06234734,-0.3652213,0.436553,0.7935479,7.243986,8.377412,-58.90069,996.4157
3.500977993,0.007664802,-0.0299215,-0.06230817,-0.36181,0.4371376,0.7954524,6.508773,8.353066,-59.34562,996.4157
3.503475189,-0.0542997,-0.0894714,-0.184689,-0.371601,0.4384028,0.7968821,6.508773,8.353066,-59.34562,996.4157
3.508469105,0.007677039,-0.1489745,-0.0009915903,-0.3642431,0.4359857,0.7859087,6.508773,8.353066,-59.34562,996.4157
3.510966301,0.007674629,-0.3276056,-0.06219148,-0.3636778,0.4322233,0.7940555,6.508773,8.353066,-59.34562,996.4157
3.515960693,0.007650344,-0.1487593,-0.184572,-0.3633596,0.4419913,0.7978069,6.508773,8.353066,-59.34562,996.4157
3.518457890,0.1315721,-0.02959398,-0.3069144,-0.3639296,0.446297,0.7939553,6.508773,8.353066,-59.34562,996.4157
3.523451805,-0.2402442,-0.267719,-0.3067409,-0.3628753,0.4419438,0.7935081,6.508773,8.353066,-59.34562,996.4157
3.528446197,-0.1781701,-0.02933235,-0.306529,-0.3648167,0.4414616,0.7968563,6.508773,8.353066,-59.34562,996.4157
3.530943870,-0.2400762,-0.08888244,-0.3676329,-0.3594883,0.4440101,0.7973126,6.508773,8.353066,-59.34562,996.4157
3.535937786,-0.1780022,-0.2078891,-0.2450592,-0.3696704,0.4393381,0.7911423,6.508773,8.353066,-59.34562,996.4157
3.538434982,-0.3638325,-0.2673831,-0.5509832,-0.3638118,0.4400589,0.799254,6.508773,8.353066,-59.34562,996.4157
3.543428898,-0.3016808,-0.1481152,-0.5505986,-0.3672566,0.4408207,0.7892196,6.508773,8.353066,-59.34562,996.4216
3.545926094,-0.3015861,-0.08850936,-0.5504256,-0.3672765,0.4423668,0.7958959,6.508773,8.353066,-59.34562,996.4216
3.550920010,-0.05360663,-0.08841634,-0.4888796,-0.365651,0.4331132,0.7911843,6.508773,8.353066,-59.34562,996.4216
3.555914879,-0.3633055,-0.1479201,-0.4885725,-0.364759,0.4380194,0.7935371,6.508773,8.353066,-59.34562,996.4216
3.558412075,-0.1773051,-0.1478736,-0.3660186,-0.3666597,0.4350721,0.7940369,6.508773,8.353066,-59.34562,996.4216
3.563405990,-0.2391753,0.03089717,-0.3657694,-0.3671957,0.4380378,0.7987927,6.508773,8.353066,-59.34562,996.4216
3.565903187,-0.2391002,-0.02867183,-0.2432541,-0.3642311,0.4361596,0.7988044,6.508773,8.353066,-59.34562,996.4216
3.570897579,0.00885948,-0.1477537,-0.365444,-0.3559322,0.4356918,0.7868612,6.508773,8.353066,-59.34562,996.4216
3.573394775,-0.2389917,-0.1477073,-0.304129,-0.3604268,0.4414853,0.7915992,6.508773,8.353066,-59.34562,996.4216
3.578388691,-0.238861,0.1501072,-0.3650805,-0.3662326,0.4384732,0.7935348,6.508773,8.353066,-59.34562,996.4216
3.580885887,-0.238786,0.0309414,-0.2425654,-0.361317,0.4366049,0.7911569,6.508773,8.353066,-59.34562,996.4216
3.585880756,-0.4245027,-0.1477185,-0.3036132,-0.3651796,0.4341008,0.7916547,6.508773,8.353066,-59.34562,996.4216
3.590874672,-0.2383887,0.09053664,-0.3034033,-0.36004,0.447358,0.794423,6.508773,8.353066,-59.34562,996.4216
3.593371868,-0.3002759,0.09050819,-0.1809075,-0.3638775,0.4433852,0.793976,6.508773,8.353066,-59.34562,996.4216
3.598365784,-0.2381252,0.03087332,-0.3643176,-0.3618005,0.4366652,0.796411,6.508773,8.353066,-59.34562,996.4216
3.600862980,-0.1760883,0.09042293,-0.3030029,-0.3638815,0.4433272,0.7896774,6.50245,8.721952,-59.35205,996.4216
3.605856895,-0.05205349,0.09042226,-0.4251553,-0.3628969,0.4434641,0.7982738,6.50245,8.721952,-59.35205,996.4216
3.608354568,-0.2379234,0.03083455,-0.4250217,-0.3691808,0.4393679,0.7925748,6.50245,8.721952,-59.35205,996.4216
3.613348961,-0.3615618,0.1499899,-0.4859357,-0.3652213,0.436553,0.7935479,6.50245,8.721952,-59.35205,996.4216
3.618342876,-0.2994116,0.09033638,-0.485592,-0.3633293,0.4399857,0.7930446,6.50245,8.721952,-59.35205,996.4216
3.620840549,-0.1753933,0.03074871,-0.363039,-0.3608772,0.4395787,0.7949567,6.50245,8.721952,-59.35205,996.424
3.625834465,-0.2372258,-0.3265703,-0.4239727,-0.3657842,0.4409617,0.7973381,6.50245,8.721952,-59.35205,996.424
3.628331661,-0.2991133,-0.08823048,-0.4238395,-0.365647,0.4331712,0.7954829,6.50245,8.721952,-59.35205,996.424
3.633325577,0.01086558,0.03090613,-0.3623538,-0.3647216,0.4361169,0.7964166,6.50245,8.721952,-59.35205,996.424
3.635824203,-0.2369862,0.03089642,-0.668241,-0.3589583,0.4415683,0.795419,6.50245,8.721952,-59.35205,996.424
3.640817642,-0.4227236,0.09039889,-0.1783157,-0.3710779,0.4364721,0.7968956,6.50245,8.721952,-59.35205,996.424
3.645811558,-0.3605154,-0.02870166,-0.4229083,-0.3660755,0.4297508,0.7945522,6.50245,8.721952,-59.35205,996.424
3.648308754,-0.3604021,0.1499853,-0.3615753,-0.3671758,0.4364917,0.7921164,6.50245,8.721952,-59.35205,996.424
3.653302669,-0.236271,-0.02873073,-0.3613866,-0.3604159,0.4410322,0.7939907,7.24368,8.361632,-59.72984,996.424
3.655799866,-0.4840451,-0.02872171,-0.4836735,-0.360839,0.4376891,0.7987915,7.24368,8.361632,-59.72984,996.424
3.660793781,-0.3598558,-0.02870366,-0.60577,-0.3628067,0.4380486,0.7925804,7.24368,8.361632,-59.72984,996.4198
3.663291454,-0.8554394,-0.2669318,-0.5443795,-0.3642416,0.4366192,0.7968905,7.24368,8.361632,-59.72984,996.4198
3.668285847,-0.6690158,-0.02854566,-0.5440375,-0.361356,0.4390958,0.7959157,7.24368,8.361632,-59.72984,996.4198
3.670782566,-0.6068435,-0.1476553,-0.5438666,-0.3637766,0.4381242,0.7997454,7.24368,8.361632,-59.72984,996.4198
3.675777435,-0.3586723,-0.08800323,-0.4822671,-0.3599567,0.4424535,0.7906367,7.24368,8.361632,-59.72984,996.4198
3.680771351,-0.3584276,-0.08796667,-0.7267841,-0.3706379,0.4388382,0.7916241,7.24368,8.361632,-59.72984,996.4198
3.683268547,-0.2343908,-0.08793903,-0.6653556,-0.3647492,0.4369393,0.7854245,7.24368,8.361632,-59.72984,996.4198
3.688262939,-0.3581482,0.09073798,-0.4813562,-0.364252,0.4370787,0.7949765,7.24368,8.361632,-59.72984,996.4198
3.690759659,-0.4819599,0.03115018,-0.481205,-0.3657456,0.4384644,0.7921015,7.24368,8.361632,-59.72984,996.4198
3.695754528,-0.3577524,-0.08796928,-0.4197025,-0.3680726,0.4321288,0.7940588,7.24368,8.361632,-59.72984,996.4198
3.698251247,-0.6054884,-0.2070602,-0.541971,-0.3661636,0.4345844,0.7930848,7.24368,8.361632,-59.72984,996.4198
3.703245640,-0.4192801,-0.08781156,-0.6640502,-0.3629082,0.4439108,0.7954047,6.863816,9.10726,-58.91278,996.4223
3.708239555,-0.4809788,0.1504621,-0.4800709,-0.3690848,0.4340361,0.7930905,6.863816,9.10726,-58.91278,996.4223
3.710736751,-0.4188656,0.03129622,-0.5411203,-0.364246,0.4365547,0.7921143,6.863816,9.10726,-58.91278,996.4223
3.715731621,-0.4185635,-0.08780462,-0.4183799,-0.3700848,0.4355096,0.7959465,6.863816,9.10726,-58.91278,996.4223
3.718228340,-0.5423562,-0.1473363,-0.2346479,-0.3637012,0.4337179,0.7969109,6.863816,9.10726,-58.91278,996.4223
3.723222732,-0.4800729,-0.2067844,-0.5404053,-0.3642277,0.435597,0.7930765,6.863816,9.10726,-58.91278,996.4223
3.725720406,-0.4799221,-0.0876008,-0.356635,-0.3627588,0.4356865,0.797374,6.863816,9.10726,-58.91278,996.4223
3.730714321,-0.4796205,-0.5044422,-0.5399923,-0.3666619,0.4350399,0.7916489,6.863816,9.10726,-58.91278,996.4223
3.733211517,-0.4175078,-0.2660465,-0.356222,-0.3661857,0.4360983,0.797373,6.863816,9.10726,-58.91278,996.4223
3.738205433,-0.4791492,-0.02769828,-0.355979,-0.3665794,0.4307367,0.7964561,6.863816,9.10726,-58.91278,996.4223
3.743199825,-0.5408297,-0.02764345,-0.3556977,-0.3598377,0.4362348,0.7973683,6.863816,9.10726,-58.91278,996.4223
3.745696545,-0.2928115,0.03192453,-0.355586,-0.3627103,0.4327232,0.7935737,6.863816,9.10726,-58.91278,996.4223
3.750691414,-0.292647,-0.02765482,-0.1106002,-0.3647659,0.4385305,0.7954441,7.231175,9.106688,-59.36,996.4223
3.753188610,-0.3545172,0.03191317,-0.3553663,-0.3607835,0.4342147,0.7930843,7.231175,9.106688,-59.36,996.4223
3.758182526,-0.292274,0.09145242,-0.2939236,-0.3637348,0.4350642,0.788781,7.231175,9.106688,-59.36,996.4223
3.760679722,-0.23022,0.03186439,-0.2326311,-0.3622754,0.4356261,0.7921197,7.231175,9.106688,-59.36,996.4223
3.765673637,-0.2300754,0.03184437,-0.2936467,-0.3652542,0.43852,0.7954445,7.231175,9.106688,-59.36,996.4223
3.770668507,-0.4157782,0.03180566,-0.3546816,-0.3656744,0.4346078,0.7940397,7.231175,9.106688,-59.36,996.4223
3.773165226,-0.4776097,0.03179567,-0.29337,-0.3626747,0.4307949,0.7945428,7.231175,9.106688,-59.36,996.4223
3.778159618,-0.2295197,-0.02774618,-0.2931665,-0.3652834,0.4399308,0.7920908,7.231175,9.106688,-59.36,996.4223
3.780657291,-0.2914097,0.03182184,-0.4154748,-0.3598069,0.4342357,0.7930835,7.231175,9.106688,-59.36,996.4223
3.785651207,-0.4151508,-0.08729805,-0.2928326,-0.3677379,0.4409133,0.7968619,7.231175,9.106688,-59.36,996.4223
3.788148403,-0.4769824,0.03184798,-0.3539408,-0.3652286,0.4370577,0.7949772,7.231175,9.106688,-59.36,996.4223
3.793142319,-0.4766828,-0.08729063,-0.2925183,-0.3666232,0.4331567,0.7959612,7.231175,9.106688,-59.36,996.4223
3.798136711,-0.4764028,-0.02767649,-0.353477,-0.361366,0.4395618,0.7944794,7.231175,9.106688,-59.36,996.4223
3.800633430,-0.4762531,-0.1467864,-0.353366,-0.3632698,0.4365693,0.791636,7.237498,8.737802,-59.35358,996.4223
3.805628300,-0.475915,-0.02761301,-0.4143442,-0.365183,0.4346634,0.7973827,7.237498,8.737802,-59.35358,996.4223
3.808125496,-0.4757655,-0.08716363,-0.2918136,-0.3642663,0.4380944,0.7983129,7.237498,8.737802,-59.35358,996.4223
3.813119411,-0.5374481,-0.2657306,-0.4139922,-0.3637628,0.437102,0.7959314,7.237498,8.737802,-59.35358,996.4223
3.815616608,-0.5992414,-0.02740996,-0.2914618,-0.3652277,0.4370705,0.7959325,7.237498,8.737802,-59.35358,996.4223
3.820610523,-0.3509971,0.09166974,-0.597222,-0.3612618,0.4337382,0.794521,7.237498,8.737802,-59.35358,996.4223
3.823108673,-0.2889248,-0.1465963,-0.5358341,-0.362725,0.4337325,0.7964325,7.237498,8.737802,-59.35358,996.4248
3.828102112,-0.47461,0.0321176,-0.5355167,-0.3656678,0.4347044,0.8012039,7.237498,8.737802,-59.35358,996.4248
3.833096504,-0.2884646,0.1511973,-0.4128184,-0.3645858,0.4283071,0.7931287,7.237498,8.737802,-59.35358,996.4248
3.835594177,-0.2883739,-0.08708739,-0.4126887,-0.3664888,0.4253275,0.7912404,7.237498,8.737802,-59.35358,996.4248
3.840588093,-0.1023454,0.1511671,-0.2900675,-0.366124,0.4327141,0.7983524,7.237498,8.737802,-59.35358,996.4248
3.843085289,-0.1642754,0.0915603,-0.3511766,-0.3700661,0.4345583,0.7973863,7.237498,8.737802,-59.35358,996.4248
3.848079205,-0.1641722,-0.0275971,-0.3509559,-0.3695353,0.4321295,0.7964479,7.237498,8.737802,-59.35358,996.4248
3.850576401,-0.04019642,0.03197087,-0.3508457,-0.368554,0.4316072,0.7921521,6.888802,7.615936,-59.71623,996.4248
3.855571270,-0.04011277,-0.1466897,-0.2282249,-0.365678,0.4345562,0.7902187,6.888802,7.615936,-59.71623,996.4248
3.860565186,-0.1639923,-0.1465601,-0.2892048,-0.3629273,0.4448556,0.7934873,6.888802,7.615936,-59.71623,996.4248
3.863062382,0.02194551,-0.1465141,-0.4115143,-0.3633796,0.4429232,0.7949343,6.888802,7.615936,-59.71623,996.423
3.868056297,-0.2878009,-0.2655968,-0.3499979,-0.3647187,0.4355478,0.7902111,6.888802,7.615936,-59.71623,996.423
3.870553493,-0.2257484,0.09184247,-0.4110882,-0.3647156,0.4355929,0.7935544,6.888802,7.615936,-59.71623,996.423
3.875547886,-0.1636834,-0.146415,-0.5332111,-0.3642707,0.4380299,0.7935368,6.888802,7.615936,-59.71623,996.423
3.878045082,-0.225594,-0.0272504,-0.5330436,-0.367197,0.4380185,0.7973599,6.888802,7.615936,-59.71623,996.423
3.883039474,-0.1634708,0.1513885,-0.4103468,-0.3650897,0.4292929,0.7950326,6.888802,7.615936,-59.71623,996.423
3.888033390,-0.2253302,-0.08692511,-0.348908,-0.3636855,0.4327215,0.7950073,6.888802,7.615936,-59.71623,996.423
3.890531063,-0.3491836,0.0917801,-0.3487984,-0.3613291,0.4376528,0.7968814,6.888802,7.615936,-59.71623,996.423
3.895524979,-0.2870605,-0.02737745,-0.2261981,-0.3636778,0.4322233,0.7940555,6.888802,7.615936,-59.71623,996.423
3.898022175,-0.4108945,-0.02736885,-0.2873272,-0.363212,0.4337413,0.7978657,6.888802,7.615936,-59.71623,996.423
3.903016090,-0.3486743,0.1512701,-0.2871083,-0.3632598,0.4361033,0.7930723,7.237522,8.739016,-59.2898,996.4255
3.905513287,-0.2866027,-0.02745531,-0.2258179,-0.3642529,0.4370658,0.7940213,7.237522,8.739016,-59.2898,996.4255
3.910508156,-0.2864226,0.09164311,-0.3480764,-0.3642191,0.4351117,0.7930799,7.237522,8.739016,-59.2898,996.4255
3.913005352,-0.2243705,0.03205502,-0.1643665,-0.3666319,0.433642,0.7959577,7.237522,8.739016,-59.2898,996.4255
3.917999268,-0.2861528,-0.08713984,-0.2255211,-0.3681031,0.4335203,0.7892722,7.237522,8.739016,-59.2898,996.4255
3.922993183,-0.1620682,-0.08708511,-0.3477414,-0.3636929,0.4332261,0.7964367,7.237522,8.739016,-59.2898,996.4255
3.925490379,-0.1620173,-0.08705775,-0.2864319,-0.3690788,0.4335121,0.7902282,7.237522,8.739016,-59.2898,996.4255
3.930484772,-0.3477434,0.151178,-0.2862904,-0.3622398,0.4336978,0.7930889,7.237522,8.739016,-59.2898,996.4255
3.932981968,-0.2856721,0.03201192,-0.3474007,-0.3656275,0.4322329,0.7978778,7.237522,8.739016,-59.2898,996.4255
3.937976360,-0.4713789,0.09149498,-0.2248013,-0.368968,0.4277852,0.797434,7.237522,8.739016,-59.2898,996.4255
3.940473080,-0.2233824,0.09146623,-0.1023302,-0.3656023,0.4307641,0.7969331,7.237522,8.739016,-59.2898,996.4255
3.945467949,-0.2852042,0.03179334,-0.2245894,-0.3647737,0.4390287,0.7963959,7.237522,8.739016,-59.2898,996.4237
3.950461864,-0.1611203,0.1508545,-0.3468488,-0.364611,0.4297759,0.7940735,6.869974,8.729877,-59.35282,996.4237
3.952959061,-0.2230318,0.2103665,-0.3467398,-0.3665413,0.4282328,0.790742,6.869974,8.729877,-59.35282,996.4237
3.957952976,0.08684091,0.09115312,0.02060234,-0.3646951,0.4346674,0.7969047,6.869974,8.729877,-59.35282,996.4237
3.960450172,-0.2229968,-0.02799412,-0.1630047,-0.3656115,0.4312429,0.7964519,6.869974,8.729877,-59.35282,996.4237
3.965445042,-0.3467809,0.09112336,-0.3464453,-0.3636967,0.4337823,0.801687,6.869974,8.729877,-59.35282,996.4237
3.967941761,-0.1607857,-0.02802388,-0.04033542,-0.3675998,0.4331357,0.795962,6.869974,8.729877,-59.35282,996.4237
3.972936153,-0.1607236,-0.08754686,-0.3462534,-0.3631621,0.4307973,0.7954984,6.869974,8.729877,-59.35282,996.4237
3.975438118,-0.2226352,-0.206638,-0.2849444,-0.3681746,0.4379846,0.7964053,6.869974,8.729877,-59.35282,996.4237
3.980427742,-0.2225148,-0.2661049,-0.1623842,-0.3652309,0.4370255,0.7925891,6.869974,8.729877,-59.35282,996.4237
3.985422134,-0.2842787,-0.2659377,-0.2846249,-0.363301,0.438562,0.7954431,6.869974,8.729877,-59.35282,996.4242
3.987918854,-0.3461515,-0.2658542,-0.3457357,-0.3628044,0.4380808,0.7949685,6.869974,8.729877,-59.35282,996.4242
3.992913246,-0.2839525,-0.08715892,-0.4067187,-0.3667561,0.4403975,0.7930437,6.869974,8.729877,-59.35282,996.4242
3.995409966,-0.2219012,-0.1466908,-0.3453908,-0.3569456,0.438194,0.794009,6.869974,8.729877,-59.35282,996.4242
4.000404835,-0.2217229,-0.2061393,-0.3451353,-0.3627419,0.4347095,0.7969033,7.231199,9.107902,-59.29622,996.4242
4.002902031,-0.2216532,-0.02739662,-0.4674273,-0.3656974,0.4361088,0.7973726,7.231199,9.107902,-59.29622,996.4242
4.007895947,-0.3453992,0.0321799,-0.6507342,-0.3657308,0.4380693,0.7987916,7.231199,9.107902,-59.29622,996.4242
4.012890816,-0.09733386,-0.3251774,-0.2831819,-0.3651944,0.43511,0.7945135,7.231199,9.107902,-59.29622,996.4242
4.015387058,-0.1592654,-0.08683805,-0.4666936,-0.3622901,0.4366354,0.7949786,7.231199,9.107902,-59.29622,996.4242
4.020381927,-0.1591458,-0.02720549,-0.405181,-0.3637159,0.4347271,0.7997696,7.231199,9.107902,-59.29622,996.4242
4.022879124,-0.3449821,0.03236236,-0.5274541,-0.3623656,0.4410417,0.7978131,7.231199,9.107902,-59.29622,996.4225
4.027873039,-0.1588791,0.1514606,-0.3435798,-0.3675455,0.4302561,0.7983708,7.231199,9.107902,-59.29622,996.4225
4.030370235,-0.2207913,0.03229445,-0.4046721,-0.3700944,0.435982,0.7949878,7.231199,9.107902,-59.29622,996.4225
4.035364628,-0.1586516,0.09185217,-0.465618,-0.3689958,0.4292153,0.7955131,7.231199,9.107902,-59.29622,996.4225
4.040359020,-0.3444576,0.2704162,-0.159363,-0.3641135,0.4293075,0.7945542,7.231199,9.107902,-59.29622,996.4225
4.042855740,-0.4063115,0.1512127,-0.1593129,-0.3651917,0.4351487,0.7973792,7.231199,9.107902,-59.29622,996.4225
4.047850132,-0.1582858,-0.08706339,-0.2203746,-0.3627506,0.4351948,0.7968998,7.231199,9.107902,-59.29622,996.4225
4.050347805,-0.158236,-0.02747673,-0.2815055,-0.364769,0.4384854,0.7921008,6.863675,9.099977,-59.29546,996.4225
4.055341721,-0.3439839,0.0320437,-0.3425097,-0.3670416,0.4292703,0.7964669,6.863675,9.099977,-59.29546,996.4225
4.057838917,-0.2819138,-0.08708497,-0.342402,-0.3617058,0.4313141,0.7954938,6.863675,9.099977,-59.29546,996.4225
4.062832832,-0.03396621,0.03206963,-0.4033679,-0.3666228,0.4331631,0.7964388,6.863675,9.099977,-59.29546,996.4208
4.065330029,-0.03395554,-0.08705905,-0.342041,-0.361836,0.4385935,0.795442,6.863675,9.099977,-59.29546,996.4208
4.070323944,-0.09587684,-0.02750119,-0.2194449,-0.3676524,0.436041,0.7954636,6.863675,9.099977,-59.29546,996.4208
4.075318813,-0.2816834,0.1511379,-0.2804881,-0.3633253,0.4400437,0.7973432,6.863675,9.099977,-59.29546,996.4208
4.077816010,-0.09570865,0.2106497,-0.2803999,-0.3636713,0.4317058,0.7916709,6.863675,9.099977,-59.29546,996.4208
4.082809925,-0.1576106,0.0914923,-0.2802046,-0.3647445,0.4376179,0.7997496,6.863675,9.099977,-59.29546,996.4208
4.085307121,-0.2195232,-0.02765505,-0.1577161,-0.3607388,0.4318075,0.7945344,6.863675,9.099977,-59.29546,996.4208
4.090301514,-0.2193853,-0.2062969,-0.218798,-0.3652487,0.4379896,0.7921046,6.863675,9.099977,-59.29546,996.4208
4.092798710,-0.1573543,-0.02755416,-0.1575291,-0.3632788,0.4376623,0.8007038,6.863675,9.099977,-59.29546,996.4208
4.097792625,-0.219198,-0.1466367,-0.1574686,-0.3686381,0.4364989,0.7949833,6.863675,9.099977,-59.29546,996.4208
4.102787018,-0.4049077,-0.3252038,-0.3408934,-0.3666606,0.4350592,0.7930817,6.870139,8.738374,-58.90635,996.4231
4.105284691,-0.03300792,-0.2655423,-0.1571856,-0.3617922,0.4361735,0.7959369,6.870139,8.738374,-58.90635,996.4231
4.110278606,-0.4047013,-0.08673504,-0.3406875,-0.3656851,0.435675,0.801197,6.870139,8.738374,-58.90635,996.4231
4.112775803,-0.2186879,-0.08670779,-0.3405805,-0.3641378,0.4307892,0.7964543,6.870139,8.738374,-58.90635,996.4231
4.117769718,-0.2186089,-0.2057345,-0.2179853,-0.3637866,0.4385902,0.7983091,6.870139,8.738374,-58.90635,996.4231
4.120266914,-0.2805023,-0.1461106,-0.279117,-0.3647074,0.4351012,0.7930803,6.870139,8.738374,-58.90635,996.4231
4.125261784,-0.09443986,-0.08653432,-0.2789225,-0.3623135,0.43813,0.7978339,6.870139,8.738374,-58.90635,996.4231
4.130255699,-0.09438053,-0.02692066,-0.2787473,-0.3612505,0.4332916,0.7973902,6.870139,8.738374,-58.90635,996.4231
4.132752895,-0.156313,-0.0269122,-0.2174595,-0.3641986,0.4341862,0.7964301,6.870139,8.738374,-58.90635,996.4231
4.137746811,-0.1562148,0.09222331,-0.1561611,-0.3593554,0.4367693,0.8002301,6.870139,8.738374,-58.90635,996.4231
4.140244484,-0.09420361,0.1517536,-0.2173123,-0.3612262,0.4318099,0.79549,6.870139,8.738374,-58.90635,996.4231
4.145238400,-0.156126,0.3302988,-0.2171758,-0.3607284,0.431348,0.7964483,6.870139,8.738374,-58.90635,996.4197
4.147735596,-0.218039,0.3897543,-0.2783077,-0.3636747,0.4322684,0.7973989,6.870139,8.738374,-58.90635,996.4197
4.152729988,-0.09403627,0.151291,-0.2781521,-0.3628679,0.4414392,0.7920786,6.496127,9.090838,-59.35847,996.4197
4.155226707,-0.03204463,0.2108027,-0.4616653,-0.3651939,0.4351165,0.7949911,6.496127,9.090838,-59.35847,996.4197
4.160221577,-0.2798729,0.2702296,-0.2778324,-0.3690231,0.4306519,0.7940699,6.496127,9.090838,-59.35847,996.4197
4.165215492,0.03003555,0.2105193,-0.2164769,-0.3622202,0.4327595,0.7954838,6.496127,9.090838,-59.35847,996.4197
4.167712688,0.1539503,0.03177522,-0.3388093,-0.3657481,0.4390399,0.7987847,6.496127,9.090838,-59.35847,996.4197
4.182695389,0.09167884,0.03132264,-0.2158861,-0.3666922,0.4370455,0.7964112,6.496127,9.090838,-59.35847,996.4197
4.187689781,0.215526,0.2099247,-0.2157504,-0.3676575,0.4365779,0.7992811,6.496127,9.090838,-59.35847,996.4222
4.192683697,0.09144692,0.1502148,-0.1543955,-0.3671159,0.4330817,0.7911854,6.496127,9.090838,-59.35847,996.4222
