Time (s),Gyroscope X (deg/s),Gyroscope Y (deg/s),Gyroscope Z (deg/s),Accelerometer X (g),Accelerometer Y (g),Accelerometer Z (g),Magnetometer X (uT),Magnetometer Y (uT),Magnetometer Z (uT),Barometer (hPa)
0.000000000,0.07307872,-0.1270711,0.04955507,-0.3294989,0.4353637,0.8284048,5.199332,6.931908,-38.77435,993.961
0.004995346,0.2588607,-0.1865132,0.1107818,-0.3289892,0.4344616,0.83271,5.199332,6.931908,-38.77435,993.961
0.007493496,0.3207414,-0.1268953,-0.01165339,-0.3354047,0.4376255,0.8255262,5.199332,6.931908,-38.77435,993.961
0.012489319,0.01076844,-0.1863375,0.1107543,-0.3368496,0.436662,0.8283999,5.199332,6.931908,-38.77435,993.961
0.017485142,0.1346664,-0.1267172,0.1106848,-0.3329362,0.436235,0.82649,5.199332,6.931908,-38.77435,993.961
0.019983292,0.1346241,-0.245796,0.1718502,-0.334883,0.4356754,0.8241069,5.199332,6.931908,-38.77435,993.961
0.024978638,0.2584637,-0.2456416,-0.01176225,-0.3373011,0.4341284,0.8212533,5.573014,6.562451,-39.21516,993.961
0.027476311,0.1964204,0.05223206,0.1106419,-0.3367906,0.4332392,0.8265136,5.573014,6.562451,-39.21516,993.961
0.032472610,0.07241176,-0.06686322,0.1717725,-0.3319609,0.4362367,0.8250564,5.573014,6.562451,-39.21516,993.961
0.034970284,0.1343511,-0.1264015,0.1105184,-0.3329453,0.4367138,0.826009,5.573014,6.562451,-39.21516,993.961
0.039965630,0.01040091,-0.1263408,-0.1342942,-0.3349321,0.4380182,0.8178805,5.573014,6.562451,-39.21516,993.9634
0.042463779,0.1343218,-0.1858604,-0.01185158,-0.3349039,0.4365945,0.820279,5.573014,6.562451,-39.21516,993.9634
0.047459602,0.3201626,-0.3048435,-0.07304433,-0.3323789,0.4323567,0.8260397,5.573014,6.562451,-39.21516,993.9634
0.052455425,0.07215209,-0.1855334,0.04940196,-0.3377667,0.4332246,0.826992,5.573014,6.562451,-39.21516,993.9634
0.054953098,0.07212942,-0.006797254,0.1717868,-0.3333975,0.4347815,0.827456,5.573014,6.562451,-39.21516,993.9634
0.059948921,0.1340073,-0.1258554,0.04935542,-0.3382442,0.4327611,0.8293839,5.573014,6.562451,-39.21516,993.9634
0.062447071,0.1959273,-0.1853752,-0.07306048,-0.3398894,0.4423388,0.8221515,5.573014,6.562451,-39.21516,993.9634
0.067442894,0.2577079,-0.06614016,0.1105476,-0.333826,0.431361,0.8265253,5.573014,6.562451,-39.21516,993.9634
0.069940090,0.2576269,-0.06611937,-0.01188756,-0.3373136,0.4351699,0.8265002,5.573014,6.562451,-39.21516,993.9634
0.074935913,0.2574651,-0.06611526,-0.07308029,-0.3319014,0.4328203,0.8236477,5.566691,6.931336,-39.22158,993.9634
0.079932213,0.1953802,-0.06609243,0.04934679,-0.333451,0.4376739,0.8260024,5.566691,6.931336,-39.22158,993.9634
0.082429886,0.1953188,-0.125631,0.1717317,-0.3393485,0.439444,0.8226495,5.566691,6.931336,-39.22158,993.9634
0.087425232,0.2571192,-0.1850552,0.1716046,-0.3377868,0.4341565,0.8241194,5.566691,6.931336,-39.22158,993.9634
0.089923382,0.1950764,0.05324012,0.1715507,-0.337321,0.4356745,0.8279296,5.566691,6.931336,-39.22158,993.9634
0.094919205,0.318839,-0.1254899,0.04910017,-0.3348843,0.4356561,0.822674,5.566691,6.931336,-39.22158,993.9634
0.097417355,0.2567768,-0.1254505,-0.07331566,-0.3324214,0.434796,0.8269777,5.566691,6.931336,-39.22158,993.9634
0.102412701,0.2566155,-0.006253101,0.1714543,-0.3315,0.4376837,0.8236128,5.566691,6.931336,-39.22158,993.9634
0.104910374,0.3184969,-0.1253697,0.1102002,-0.3285666,0.4377983,0.8274316,5.566691,6.931336,-39.22158,993.9634
0.109906673,0.1944116,-0.3040063,-0.0734696,-0.3334042,0.4346848,0.8202918,5.566691,6.931336,-39.22158,993.9634
0.114902496,0.1323274,-0.1251374,0.2325391,-0.3358496,0.4351885,0.8255438,5.566691,6.931336,-39.22158,993.9634
0.117399693,0.07032374,-0.1250981,0.04886545,-0.3333975,0.4347815,0.827456,5.566691,6.931336,-39.22158,993.9634
0.122395992,0.1322416,-0.1845788,0.110035,-0.3320313,0.4401062,0.8240736,5.566691,6.931336,-39.22158,993.9634
0.124893665,0.5659348,-0.3036394,-0.1348004,-0.3349647,0.4399916,0.8202548,4.844455,6.186212,-38.76074,993.9634
0.129889488,0.1939235,-0.1843675,-0.07353476,-0.3334007,0.4347364,0.8241127,4.844455,6.186212,-38.76074,993.9634
0.132387638,0.3177867,-0.3629875,-0.1959121,-0.3348469,0.4337536,0.8255535,4.844455,6.186212,-38.76074,993.9634
0.137382984,0.255625,-0.005459778,-0.01222683,-0.3368166,0.4346951,0.8265033,4.844455,6.186212,-38.76074,993.9634
0.142378807,0.1935218,-0.005418926,0.04896183,-0.3358965,0.4375634,0.8217056,4.844455,6.186212,-38.76074,993.9634
0.144876957,0.2554231,-0.005417224,0.1101466,-0.3342682,0.4289627,0.8294087,4.844455,6.186212,-38.76074,993.9634
0.149872303,0.3172247,-0.1840356,0.1101544,-0.3382784,0.4347087,0.8298477,4.844455,6.186212,-38.76074,993.9634
0.152369976,0.317125,-0.00529987,0.04891955,-0.3309665,0.4352935,0.8255402,4.844455,6.186212,-38.76074,993.9634
0.157366276,0.5027732,-0.1243964,0.1100698,-0.3354438,0.4395022,0.8207362,4.844455,6.186212,-38.76074,993.9634
0.159863949,0.378691,-0.1243573,0.1100352,-0.3314873,0.4372564,0.8279149,4.844455,6.186212,-38.76074,993.9634
0.164860249,0.6262431,-0.06470121,-0.01247277,-0.332773,0.4269886,0.8246453,4.844455,6.186212,-38.76074,993.9634
0.167362213,0.5021222,-0.1242402,0.1711318,-0.3294278,0.430893,0.8207941,4.844455,6.186212,-38.76074,993.9634
0.172353268,0.5637688,0.05449705,0.1098433,-0.3359551,0.4409927,0.8240696,4.844455,6.186212,-38.76074,993.9634
0.177349567,0.3774894,-0.1241777,-0.01260692,-0.3378133,0.435606,0.8236313,5.566526,6.92284,-39.66805,993.9634
0.179852009,0.5632571,0.1140985,0.04859725,-0.3402306,0.4340718,0.8217331,5.566526,6.92284,-39.66805,993.9634
0.184842587,0.3770365,-0.005073018,0.2933291,-0.3338616,0.4332893,0.8255562,5.566526,6.92284,-39.66805,993.9634
0.187340736,0.5628043,-0.005071424,0.2932369,-0.3275104,0.433471,0.8288949,5.566526,6.92284,-39.66805,993.9634
0.192336559,0.6243739,-0.1241681,0.2318525,-0.3335478,0.4429929,0.8245315,5.566526,6.92284,-39.66805,993.9634
0.194834709,0.5622156,-0.1836884,0.1093793,-0.3325494,0.4421077,0.8293139,5.566526,6.92284,-39.66805,993.9634
0.199830055,0.5618235,0.1142235,0.2317109,-0.3315142,0.4386994,0.8269492,5.566526,6.92284,-39.66805,993.9634
0.204825878,0.56149,-0.1240668,0.1092227,-0.3353256,0.4332707,0.8265126,5.566526,6.92284,-39.66805,993.9634
0.207323551,0.5613136,0.1142094,0.1703885,-0.3325247,0.4406325,0.8278914,5.566526,6.92284,-39.66805,993.9634
0.212319851,0.4989989,-0.1836027,0.1090428,-0.3344412,0.4380673,0.8207459,5.566526,6.92284,-39.66805,993.9634
0.214818955,0.6847284,0.1738108,0.1090086,-0.3348208,0.4322977,0.8255638,5.566526,6.92284,-39.66805,993.9634
0.219812870,0.6223946,-0.1240949,-0.07467972,-0.3368119,0.4341518,0.8222082,5.566526,6.92284,-39.66805,993.9634
0.222311020,0.7461232,-0.1240559,-0.01345606,-0.3401767,0.4311858,0.8236643,5.566526,6.92284,-39.66805,993.9634
0.227306843,0.5597877,0.05464377,0.2312955,-0.3315051,0.4382206,0.8274303,5.940703,6.578872,-38.76946,993.9634
0.232302189,0.497435,0.05459073,0.16995,-0.3319192,0.4337844,0.8231632,5.940703,6.578872,-38.76946,993.9634
0.234800339,0.6212029,0.05457358,0.1698966,-0.335333,0.4337753,0.827942,5.940703,6.578872,-38.76946,993.9634
0.239796162,0.4968495,-0.06459802,0.2310285,-0.3348264,0.4328281,0.8289037,5.940703,6.578872,-38.76946,993.9615
0.242294312,0.4347313,0.05454088,0.2921562,-0.3328685,0.4323269,0.8246073,5.940703,6.578872,-38.76946,993.9615
0.247289658,0.6822482,-0.06457457,0.1084105,-0.3333789,0.4338302,0.8288957,5.940703,6.578872,-38.76946,993.9615
0.249787330,0.6200718,-0.004994977,-0.01402398,-0.3358373,0.4347548,0.8293683,5.940703,6.578872,-38.76946,993.9615
0.254783630,0.5576812,0.2927859,-0.0140344,-0.3334136,0.4357714,0.8288819,5.940703,6.578872,-38.76946,993.9615
0.257281303,0.4955439,0.05445677,0.1083704,-0.3334579,0.438185,0.8279095,5.940703,6.578872,-38.76946,993.9615
0.262276649,0.5571752,0.2331192,0.1694833,-0.3388008,0.436038,0.8212405,5.940703,6.578872,-38.76946,993.9615
0.267272472,0.6807104,-0.005227059,0.1081959,-0.3388359,0.4379728,0.8207491,5.940703,6.578872,-38.76946,993.9615
0.269770622,0.6804966,-0.124344,0.1081619,-0.3329201,0.4352451,0.8250641,5.940703,6.578872,-38.76946,993.9615
0.274766445,0.4942023,-0.1838439,0.04689372,-0.3319188,0.4337909,0.8236408,5.573179,6.570948,-38.76869,993.9615
0.277264595,0.494047,0.05445104,0.04687899,-0.3324245,0.4347509,0.8236343,5.573179,6.570948,-38.76869,993.9615
0.282259941,0.5556793,-0.005123753,0.1692307,-0.3349402,0.4391241,0.8279036,5.573179,6.570948,-38.76869,993.9556
0.284757614,0.5555047,0.1139965,0.3527781,-0.3359295,0.4395304,0.8236023,5.573179,6.570948,-38.76869,993.9556
0.289753914,0.4931937,0.1735029,0.1078134,-0.3378251,0.4360462,0.8202846,5.573179,6.570948,-38.76869,993.9556
0.294749737,0.4928838,-0.005227912,0.04650701,-0.3285857,0.4387431,0.8255142,5.573179,6.570948,-38.76869,993.9556
0.297246933,0.6786152,0.05433303,-0.0147078,-0.3364087,0.439041,0.8240837,5.573179,6.570948,-38.76869,993.9556
0.302243233,0.7401705,-0.1243603,0.1076442,-0.3353751,0.4362211,0.8293576,5.573179,6.570948,-38.76869,993.9556
0.304740906,0.6779758,0.05435668,-0.07599027,-0.3334205,0.4362825,0.830789,5.573179,6.570948,-38.76869,993.9556
0.309737205,0.6775694,-0.00519935,0.1076389,-0.3333256,0.4303236,0.8208005,5.573179,6.570948,-38.76869,993.9556
0.312234402,0.7393186,0.05436158,-0.01479537,-0.3340014,0.4410412,0.8245457,5.573179,6.570948,-38.76869,993.9556
0.317230224,0.6149884,-0.005231868,0.1075951,-0.3388428,0.4384839,0.8226561,5.573179,6.570948,-38.76869,993.9556
0.319728374,0.4289089,0.05432907,0.1687615,-0.3359533,0.4410185,0.82598,5.573179,6.570948,-38.76869,993.9556
0.324724197,0.5525442,-0.2434641,0.1074553,-0.334461,0.4396135,0.8274221,5.573344,6.579445,-38.32222,993.9598
0.339711189,0.4895803,0.1141258,0.2296341,-0.335846,0.4352401,0.8293648,5.573344,6.579445,-38.32222,993.9598
0.344706535,0.5512348,0.1140728,-0.01529175,-0.3363626,0.4366532,0.8269667,5.573344,6.579445,-38.32222,993.9598
0.347204685,0.6130238,-0.1242002,0.1683137,-0.3374004,0.4400228,0.8264656,5.573344,6.579445,-38.32222,993.9598
0.352200508,0.3648486,-0.06454418,0.2293889,-0.3349475,0.4396288,0.829333,5.573344,6.579445,-38.32222,993.9598
0.357196808,0.5504668,0.1737149,0.229264,-0.333905,0.4357158,0.8255389,5.573344,6.579445,-38.32222,993.9598
0.359694481,0.4883318,0.114101,-0.01560881,-0.3334777,0.4397311,0.8345857,5.573344,6.579445,-38.32222,993.9598
0.364689827,0.3641202,-0.005051874,0.1068014,-0.335436,0.439004,0.8197844,5.573344,6.579445,-38.32222,993.958
0.367187977,0.425968,0.1736276,0.1067678,-0.3364474,0.4409242,0.8197713,5.573344,6.579445,-38.32222,993.958
0.372183800,0.4876625,0.173556,0.167901,-0.3343383,0.4322245,0.8193545,5.573344,6.579445,-38.32222,993.958
0.374681949,0.3635851,0.05438284,-0.01575238,-0.3368836,0.4380019,0.8197924,5.579337,6.193564,-39.20873,993.958
0.379677296,0.4872808,0.05432997,0.1678581,-0.3359056,0.4380423,0.8212246,5.579337,6.193564,-39.20873,993.958
0.384673118,0.5489368,0.1138738,0.2901146,-0.3344216,0.437129,0.8231409,5.579337,6.193564,-39.20873,993.958
0.387170791,0.4868023,0.05427877,0.2288233,-0.3320842,0.4430051,0.8230975,5.579337,6.193564,-39.20873,993.958
0.392167091,0.4865354,0.05424467,0.2898797,-0.3369014,0.4389661,0.8193079,5.579337,6.193564,-39.20873,993.958
0.394664287,0.4863825,0.1733462,0.3509889,-0.3339576,0.4386212,0.8250406,5.579337,6.193564,-39.20873,993.958
0.399662971,0.4860964,-0.1840249,0.1059868,-0.3315191,0.4386286,0.8216954,5.579337,6.193564,-39.20873,993.958
0.402158260,0.5479058,0.0542701,0.1671537,-0.3329497,0.4366494,0.8212328,5.579337,6.193564,-39.20873,993.958
0.407154083,0.5475616,0.1733359,0.1670871,-0.3394392,0.4448531,0.8278654,5.579337,6.193564,-39.20873,993.958
0.409651756,0.4854275,0.2328407,0.1058344,-0.3340226,0.442568,0.8297892,5.579337,6.193564,-39.20873,993.958
0.414647579,0.4851226,0.0540914,0.1669681,-0.3344772,0.4399892,0.8192992,5.579337,6.193564,-39.20873,993.958
0.419643402,0.4847789,0.113598,-0.01673736,-0.3388542,0.4389305,0.8197869,5.579337,6.193564,-39.20873,993.958
0.422141552,0.4226644,-0.06511559,0.1668685,-0.3334923,0.4395185,0.8188244,5.579337,6.193564,-39.20873,993.958
0.427136898,0.4224184,0.232647,0.2891449,-0.3315786,0.442045,0.8231041,5.199332,6.931908,-38.77435,993.958
0.429634571,0.5462099,-0.06522261,0.1666536,-0.3324258,0.4347316,0.8222015,5.199332,6.931908,-38.77435,993.958
0.434630871,0.6078094,0.1134776,0.1665489,-0.3354289,0.4391071,0.8274263,5.199332,6.931908,-38.77435,993.958
0.437133312,0.35977,-0.005676694,0.1052964,-0.3339177,0.4361431,0.821237,5.199332,6.931908,-38.77435,993.958
0.442123890,0.6073924,0.1134081,-0.07835113,-0.3359824,0.4424293,0.8226263,5.199332,6.931908,-38.77435,993.958
0.444622040,0.4832774,0.05381312,-0.07832652,-0.3339584,0.4386083,0.8240854,5.199332,6.931908,-38.77435,993.958
0.449617863,0.4210506,0.351501,0.1053233,-0.3368753,0.4375102,0.8193182,5.199332,6.931908,-38.77435,993.958
0.454613685,0.4827677,0.1726958,0.04405693,-0.3299912,0.4352952,0.8241067,5.199332,6.931908,-38.77435,993.958
0.457111359,0.4206539,0.1130822,0.1664435,-0.3354149,0.4386992,0.8331612,5.199332,6.931908,-38.77435,993.958
0.462107181,0.2964849,-0.06562927,0.105158,-0.3344086,0.4360939,0.8183716,5.199332,6.931908,-38.77435,993.958
0.464604854,0.420316,0.1726286,0.1051249,-0.3348195,0.4323171,0.8269967,5.199332,6.931908,-38.77435,993.958
0.469601154,0.419974,0.1130169,0.0438779,-0.3354078,0.4375803,0.8221829,5.199332,6.931908,-38.77435,993.958
0.472098827,0.2959179,0.1725407,0.1662645,-0.3328841,0.4333232,0.8265108,5.199332,6.931908,-38.77435,993.958
0.477094173,0.5435609,0.2319729,0.1661601,-0.3334875,0.4395894,0.8240781,5.947026,6.209985,-38.76303,993.958
0.482090473,0.4192953,-0.006372586,0.04363605,-0.3374191,0.4409741,0.8250258,5.947026,6.209985,-38.76303,993.9598
0.484588146,0.6670119,-0.006370585,0.04362234,-0.3304726,0.4347736,0.8222,5.947026,6.209985,-38.76303,993.9598
0.489584446,0.5427271,0.2318332,0.1047759,-0.3373258,0.4356036,0.8226758,5.947026,6.209985,-38.76303,993.9598
0.492081642,0.6045187,-0.006476838,0.1659432,-0.3358956,0.4375763,0.8226609,5.947026,6.209985,-38.76303,993.9598
0.497077465,0.3563294,0.2316709,0.1046388,-0.3349377,0.4385486,0.8212204,5.947026,6.209985,-38.76303,993.9598
0.499575615,0.4181796,0.3507167,0.1046059,-0.3340018,0.4410347,0.8240681,5.947026,6.209985,-38.76303,993.9598
0.504571438,0.6657653,0.2909371,0.1656827,-0.3362949,0.4327451,0.8250839,5.947026,6.209985,-38.76303,993.9598
0.509566784,0.5415202,0.1120203,0.1044361,-0.3331633,0.4488334,0.8249672,5.947026,6.209985,-38.76303,993.9598
0.512064934,0.4174259,0.05242577,0.1044033,-0.3302134,0.4479645,0.8278378,5.947026,6.209985,-38.76303,993.9598
0.517060757,0.4171442,0.3500771,0.04317594,-0.3369665,0.4429129,0.8240564,5.947026,6.209985,-38.76303,993.9598
0.519559860,0.1072027,0.2904078,0.1655628,-0.3330234,0.4410815,0.8259778,5.947026,6.209985,-38.76303,993.9598
0.524553776,0.1070964,0.2305912,0.04311604,-0.3353158,0.4321906,0.8184,5.934381,6.947757,-38.77588,993.958
0.527051926,0.1690248,0.4091966,0.0431025,-0.3343586,0.4337641,0.8255531,5.934381,6.947757,-38.77588,993.958
0.532047748,0.2309002,0.3493803,-0.01812478,-0.3326398,0.4469092,0.8254583,5.934381,6.947757,-38.77588,993.958
0.534545898,0.1688656,0.2897112,-0.01811909,-0.3354893,0.4425107,0.8278798,5.934381,6.947757,-38.77588,993.958
0.539541244,-0.07904994,0.1704106,0.1655121,-0.3340036,0.441009,0.8221576,5.934381,6.947757,-38.77588,993.958
0.544537067,-0.3268292,0.1702474,0.1042272,-0.3398547,0.4403976,0.8221654,5.934381,6.947757,-38.77588,993.958
0.547035217,-0.3267265,0.1106347,0.1041944,-0.3334979,0.4400488,0.8221642,5.934381,6.947757,-38.77588,993.958
0.552031040,-0.07871182,0.05100585,0.1041482,-0.3301325,0.4436355,0.8307346,5.934381,6.947757,-38.77588,993.958
0.554528236,-0.2645734,0.289227,0.1653157,-0.3336233,0.4473992,0.8273661,5.934381,6.947757,-38.77588,993.958
0.559524536,-0.2643487,0.1698893,-0.14077,-0.3343426,0.4327742,0.8241273,5.934381,6.947757,-38.77588,993.958
0.562022209,-0.01641735,-0.1279606,0.04287487,-0.3397505,0.434574,0.8222069,5.934381,6.947757,-38.77588,993.958
0.567018509,-0.326198,0.2293821,0.04286716,-0.3369604,0.442389,0.8211942,5.934381,6.947757,-38.77588,993.9598
0.572013378,-0.2020494,0.2292754,0.1652406,-0.3330295,0.4416055,0.82884,5.934381,6.947757,-38.77588,993.9598
0.574511528,-0.1400239,0.2292034,0.1039885,-0.3358836,0.4365284,0.8169364,5.211813,6.185639,-39.20797,993.9598
0.579507351,-0.3877259,0.229022,-0.07965819,-0.337444,0.4418352,0.8168994,5.211813,6.185639,-39.20797,993.9598
0.582005501,-0.325642,0.2885093,-0.07963316,-0.3368836,0.4380019,0.8197924,5.211813,6.185639,-39.20797,993.9598
0.587000847,-0.5113626,-0.009449739,-0.01842138,-0.3336146,0.4469139,0.8273695,5.211813,6.185639,-39.20797,993.9598
0.589498997,-0.4492399,0.1096718,-0.01841559,-0.334021,0.4419796,0.8221507,5.211813,6.185639,-39.20797,993.9598
0.594494820,-0.6967281,0.3478027,-0.07956577,-0.3329544,0.4371927,0.8255278,5.211813,6.185639,-39.20797,993.9598
0.599490642,-0.8201951,0.168925,-0.07955424,-0.3354389,0.4395731,0.82599,5.211813,6.185639,-39.20797,993.9598
0.601988792,-0.2622787,0.1093127,-0.1407295,-0.3348727,0.4346018,0.8164718,5.211813,6.185639,-39.20797,993.9598
0.606984138,-0.5099818,0.1092814,-0.2018412,-0.3340994,0.446955,0.8311908,5.211813,6.185639,-39.20797,993.9598
0.609481811,-0.6337457,0.2283657,-0.01817723,-0.3383406,0.4380864,0.8283906,5.211813,6.185639,-39.20797,993.9598
0.614478111,-0.5713855,-0.1291336,0.1042346,-0.3303263,0.4265043,0.8208259,5.211813,6.185639,-39.20797,993.9598
0.616975784,-0.571206,-0.00997442,-0.01819856,-0.335844,0.4346581,0.822204,5.211813,6.185639,-39.20797,993.9598
0.621971130,-0.3850192,-0.01000558,-0.2017493,-0.3339212,0.4360915,0.817416,5.205655,6.563023,-38.76793,993.9598
0.624469280,-0.5707846,-0.06956173,-0.07928549,-0.3329589,0.4371283,0.8207517,5.205655,6.563023,-38.76793,993.9598
0.629465103,-0.4465018,0.109085,0.04314549,-0.334856,0.4342325,0.8250724,5.205655,6.563023,-38.76793,993.9598
0.634460926,-0.3842787,0.2281725,0.04311839,-0.3353301,0.4332063,0.8217364,5.205655,6.563023,-38.76793,993.9598
0.636958599,-0.2602338,-0.01013637,0.104305,-0.3339355,0.4371073,0.8207524,5.205655,6.563023,-38.76793,993.9598
0.641954422,-0.3220129,-0.2483485,0.04305854,-0.3364877,0.4433959,0.8230973,5.205655,6.563023,-38.76793,993.9598
0.644452572,-0.3219118,-0.06959257,0.1042452,-0.3329636,0.4376716,0.8250468,5.205655,6.563023,-38.76793,993.9598
0.649448395,-0.4456726,-0.009970833,-0.1405826,-0.3339362,0.4377086,0.8293461,5.205655,6.563023,-38.76793,993.9598
0.651946068,-0.4455326,-0.069527,-0.01813806,-0.3325238,0.4406454,0.8288466,5.205655,6.563023,-38.76793,993.9598
0.656941414,-0.321348,0.2282945,-0.07930764,-0.3344454,0.4386171,0.8255185,5.205655,6.563023,-38.76793,993.9598
0.661937714,-0.3830498,0.04952928,0.04314259,-0.3378571,0.438026,0.8231364,5.205655,6.563023,-38.76793,993.9598
0.664435387,-0.4448916,0.109073,0.04312903,-0.3334632,0.4381077,0.822178,5.205655,6.563023,-38.76793,993.9598
0.669430733,-0.5685557,0.04942649,-0.01805981,-0.3329749,0.4381182,0.8221776,5.205655,6.563023,-38.76793,993.9598
0.671928883,-0.506415,-0.01014834,0.04314607,-0.3374601,0.4428251,0.8183253,5.579502,6.202061,-38.76227,993.9598
0.676924705,-0.568059,-0.01012325,-0.07926221,-0.3349128,0.4376875,0.8293468,5.579502,6.202061,-38.76227,993.9598
0.679422855,-0.5678805,0.04943923,0.1043633,-0.3339636,0.4391451,0.8279029,5.579502,6.202061,-38.76227,993.9598
0.684418201,-0.5056006,-0.06965429,-0.2016648,-0.3364539,0.4414417,0.822156,5.579502,6.202061,-38.76227,993.9598
0.686915874,-0.4434797,0.04948619,-0.07920107,-0.3370399,0.4467373,0.8197302,5.579502,6.202061,-38.76227,993.9598
0.691912174,-0.3192574,0.228133,-0.1403707,-0.3354129,0.4381172,0.8260004,5.579502,6.202061,-38.76227,993.9598
0.696907997,-0.6907709,-0.01022881,0.0432796,-0.3349693,0.4405349,0.8245499,5.579502,6.202061,-38.76227,993.9598
0.699406147,-0.5046677,-0.1889035,-0.0179342,-0.3343706,0.434812,0.8312777,5.579502,6.202061,-38.76227,993.9598
0.704401016,-0.3185617,0.1684774,0.1045159,-0.3330092,0.4400658,0.8226414,5.579502,6.202061,-38.76227,993.9598
0.706903934,-0.56631,-0.0102534,-0.07911752,-0.3334427,0.4371822,0.8255282,5.579502,6.202061,-38.76227,993.9598
0.711894989,-0.5039921,0.04936848,-0.07908705,-0.3384171,0.4418657,0.8207211,5.579502,6.202061,-38.76227,993.9598
0.714393139,-0.4418717,-0.1888842,-0.1402624,-0.3357819,0.4312804,0.823661,5.579502,6.202061,-38.76227,993.9598
0.719388485,-0.4415942,0.1090309,-0.140232,-0.3343052,0.4308717,0.8270068,5.579502,6.202061,-38.76227,993.9598
0.724384308,-0.2555083,-0.4269964,0.04341828,-0.3344316,0.4375949,0.8217046,5.579502,6.202061,-38.76227,993.9598
0.726882458,-0.255428,-0.06950648,0.1046048,-0.3353325,0.4337817,0.8284196,5.579502,6.202061,-38.76227,993.9598
0.731878281,-0.193286,-0.06942539,0.1657778,-0.3335031,0.4405857,0.8259817,5.579502,6.202061,-38.76227,993.9598
0.734375477,-0.2551874,-0.1885222,0.1045255,-0.3344276,0.4376529,0.8260031,5.579502,6.202061,-38.76227,993.9598
0.739371777,-0.5027975,-0.06932257,0.1044983,-0.3357975,0.4322767,0.8255646,5.579502,6.202061,-38.76227,993.9598
0.741874218,-0.3167533,-0.1884194,0.1656657,-0.3358257,0.4337004,0.8231661,5.579502,6.202061,-38.76227,993.9598
0.746865749,-0.3785164,-0.128723,0.04319964,-0.3321107,0.4444545,0.8226095,5.579502,6.202061,-38.76227,993.9598
0.749362945,-0.3164354,-0.1286826,0.1655865,-0.3299346,0.4324479,0.8289036,5.579502,6.202061,-38.76227,993.9598
0.754358768,-0.3781793,-0.1286017,-0.01811816,-0.3368722,0.4375553,0.8226616,5.579502,6.202061,-38.76227,993.9598
0.759354591,-0.3779222,-0.2475834,-0.07934543,-0.333885,0.4347839,0.8284116,5.579502,6.202061,-38.76227,993.9598
0.761852741,-0.4397656,-0.1879463,-0.0793205,-0.3339128,0.436214,0.8264908,5.579502,6.202061,-38.76227,993.9598
0.766848087,-0.3774688,-0.128269,-0.01808969,-0.3364525,0.4414611,0.8235888,5.579502,6.202061,-38.76227,993.9601
0.769346237,-0.3773503,-0.3069066,0.0431162,-0.3340314,0.4424391,0.8202368,5.579502,6.202061,-38.76227,993.9601
0.774342060,-0.5009984,-0.2472106,-0.01811109,-0.3300433,0.438207,0.824086,5.573179,6.570948,-38.76869,993.9601
0.776840210,-0.2529927,-0.3662515,0.04309481,-0.3363991,0.4385687,0.8250424,5.573179,6.570948,-38.76869,993.9601
0.781835079,-0.43872,-0.2470338,0.04312541,-0.3378661,0.4391191,0.8322043,5.573179,6.570948,-38.76869,993.9601
0.786831379,-0.438386,-0.2468225,-0.07926363,-0.3339177,0.4361431,0.821237,5.573179,6.570948,-38.76869,993.9601
0.789329052,-0.4382483,-0.3063042,-0.01803853,-0.3334249,0.436218,0.8260128,5.573179,6.570948,-38.76869,993.9601
0.794325352,-0.3760304,-0.1275088,0.1044117,-0.3363675,0.4365823,0.8217129,5.573179,6.570948,-38.76869,993.9601
0.796823025,-0.3139501,-0.187028,0.04317866,-0.3318905,0.4323672,0.8260393,5.573179,6.570948,-38.76869,993.9601
0.801818371,-0.4996392,-0.3059917,-0.07922965,-0.3319847,0.4377248,0.8274341,5.573179,6.570948,-38.76869,993.9601
0.804316521,-0.4994822,-0.3654549,-0.01800456,-0.3343993,0.4362292,0.8284016,5.573179,6.570948,-38.76869,993.9601
0.809312344,-0.1894163,-0.3652253,-0.01797403,-0.3330279,0.4410171,0.8212016,5.573179,6.570948,-38.76869,993.9601
0.814307690,-0.3131826,-0.2459334,0.04323747,-0.3348542,0.4342582,0.8269829,5.573179,6.570948,-38.76869,993.9601
0.816805839,-0.3130842,-0.2458561,-0.01797631,-0.333371,0.4333321,0.827944,5.573179,6.570948,-38.76869,993.9601
0.821801662,-0.250906,-0.364839,-0.07916522,-0.3348816,0.4356948,0.8255396,5.573179,6.570948,-38.76869,993.9601
0.824299812,-0.1888651,-0.1264871,-0.01794015,-0.3319978,0.4381457,0.8226545,5.573179,6.570948,-38.76869,993.9601
0.829295635,0.05912143,-0.06686709,0.1043946,-0.3335382,0.4425205,0.8254901,5.573179,6.570948,-38.76869,993.9601
0.831792831,-0.06482133,-0.1264054,0.04316162,-0.3348725,0.435216,0.8260208,5.573179,6.570948,-38.76869,993.9601
0.836788654,0.1210862,-0.1858478,0.04315373,-0.3296313,0.4426109,0.8259649,5.573179,6.570948,-38.76869,993.9601
0.839286804,-0.06483812,-0.2453488,-0.01806004,-0.3324405,0.4357409,0.8250602,5.573179,6.570948,-38.76869,993.9601
0.844282627,-0.1887216,-0.06651673,-0.07924889,-0.3364,0.4385557,0.8240872,5.573179,6.570948,-38.76869,993.9601
0.849277973,-0.002794601,-0.1260717,-0.3240191,-0.3319404,0.4353112,0.8284066,5.573179,6.570948,-38.76869,993.9601
0.851776123,-0.06475581,-0.1260321,-0.01791633,-0.3402397,0.4345507,0.821252,5.573179,6.570948,-38.76869,993.9601
0.856771946,0.1211517,-0.1259903,-0.01794353,-0.3358184,0.4331958,0.8217368,5.573179,6.570948,-38.76869,993.9601
0.859270096,0.05915153,-0.2450693,0.1044625,-0.3359357,0.4394402,0.8169156,5.573179,6.570948,-38.76869,993.9601
0.864265442,-0.06477088,-0.1854683,-0.2016041,-0.3304855,0.4358087,0.8269693,5.573179,6.570948,-38.76869,993.9601
0.866763115,0.1211357,-0.3045287,-0.07914038,-0.3310381,0.4391437,0.8231245,5.573179,6.570948,-38.76869,993.9601
0.871759415,-0.002864547,-0.1256969,0.1044523,-0.3363145,0.4336835,0.8226889,5.934216,6.93926,-39.22235,993.9601
0.876755238,0.05909935,-0.006518029,0.1043866,-0.3324474,0.4362519,0.8269672,5.934216,6.93926,-39.22235,993.9601
0.879252434,-0.0648434,-0.06607528,0.1043538,-0.3353599,0.4352183,0.8269764,5.934216,6.93926,-39.22235,993.9601
0.884248257,0.3069115,-0.0660712,0.04306886,-0.3335035,0.4405793,0.825504,5.934216,6.93926,-39.22235,993.9601
0.886746407,0.244853,-0.1256097,-0.1405453,-0.3354516,0.4400004,0.821688,5.934216,6.93926,-39.22235,993.9584
0.891742229,0.1208139,0.1126315,-0.01815271,-0.3324962,0.4386011,0.8212186,5.934216,6.93926,-39.22235,993.9584
0.894239902,0.05881386,0.05303685,-0.1405474,-0.3334171,0.4357198,0.825061,5.934216,6.93926,-39.22235,993.9584
0.899235725,0.1826816,0.05305966,-0.01815484,-0.335959,0.4409347,0.8197709,5.934216,6.93926,-39.22235,993.9584
0.901733875,0.1206621,0.1721616,0.1042513,-0.3344354,0.4381511,0.8269549,5.934216,6.93926,-39.22235,993.9584
0.906729698,0.05862425,0.05302839,-0.01821463,-0.3324779,0.4376434,0.8221807,5.934216,6.93926,-39.22235,993.9584
0.911725044,0.120569,0.1125357,-0.01820318,-0.3334627,0.4381141,0.8226556,5.934216,6.93926,-39.22235,993.9584
0.914222717,0.2444553,0.1720596,-0.01819746,-0.3359134,0.4385405,0.8221763,5.934216,6.93926,-39.22235,993.9584
0.919219017,-0.003546655,0.05285164,-0.07934778,-0.3300945,0.4411317,0.8250204,5.934216,6.93926,-39.22235,993.9584
0.921716690,0.05841656,-0.006724268,0.1042778,-0.3335013,0.4406115,0.8278922,5.573014,6.562451,-39.21516,993.9584
0.926712990,-0.06556379,0.3505422,0.1654317,-0.3319929,0.4382165,0.8279083,5.573014,6.562451,-39.21516,993.9584
0.929210186,0.058381,0.1121949,-0.07942111,-0.3358912,0.4376408,0.827437,5.573014,6.562451,-39.21516,993.9584
0.934206009,0.3060759,0.1121618,0.04302919,-0.3334988,0.440036,0.821209,5.573014,6.562451,-39.21516,993.9584
0.939206123,0.05811311,0.2311725,0.04302139,-0.338302,0.435589,0.8231541,5.573014,6.562451,-39.21516,993.9584
0.941699982,0.2439811,0.1119813,-0.07939253,-0.3349671,0.4405671,0.826938,5.573014,6.562451,-39.21516,993.9584
0.946695328,0.1199231,0.1714141,0.04305775,-0.3314757,0.436202,0.8217127,5.573014,6.562451,-39.21516,993.9584
0.949193478,0.1198854,0.111801,-0.01815598,-0.3335009,0.4406179,0.8283697,5.573014,6.562451,-39.21516,993.9584
0.954189301,0.1817917,0.05220885,-0.01816379,-0.3364283,0.4399794,0.8216887,5.573014,6.562451,-39.21516,993.9584
0.956687450,0.2436967,0.1713111,0.1042423,-0.3334046,0.4346784,0.8198141,5.573014,6.562451,-39.21516,993.9584
0.961682320,0.05771571,-0.007455762,0.04297663,-0.3384075,0.4413933,0.8216798,5.573014,6.562451,-39.21516,993.9584
0.966678619,0.1815841,-0.1266632,0.04293041,-0.3369281,0.4410233,0.8278912,5.573014,6.562451,-39.21516,993.9584
0.969176292,0.2434892,-0.1861827,0.04291692,-0.3324977,0.4391895,0.8288569,5.573014,6.562451,-39.21516,993.9565
0.974172592,-0.004453741,0.05209658,-0.01829102,-0.3305311,0.4382029,0.8245639,5.579337,6.193564,-39.20873,993.9565
0.976669788,0.1194718,0.1711988,0.04291493,-0.3314557,0.4352701,0.8245854,5.579337,6.193564,-39.20873,993.9565
0.981665611,0.05745417,-0.1861523,-0.01831224,-0.3340183,0.4420182,0.8250164,5.579337,6.193564,-39.20873,993.9565
0.984163761,0.1193982,-0.06697519,-0.07950669,-0.3360259,0.4448558,0.822609,5.579337,6.193564,-39.20873,993.9565
0.989159584,0.05732217,-0.007336393,-0.0794952,-0.3325082,0.439649,0.826943,5.579337,6.193564,-39.20873,993.9565
0.991657734,-0.004657932,0.1713438,-0.01827002,-0.3387195,0.4317155,0.824615,5.579337,6.193564,-39.20873,993.9565
0.996653080,0.1811923,-0.007423017,0.04294165,-0.3333637,0.4328274,0.8265146,5.579337,6.193564,-39.20873,993.9565
1.001648903,-0.1906357,0.05210352,-0.07950496,-0.3339596,0.4392031,0.8322014,5.579337,6.193564,-39.20873,993.9565
1.004147053,-0.004689485,0.1116465,-0.1406802,-0.3368513,0.4366362,0.8264894,5.579337,6.193564,-39.20873,993.9565
1.009141922,-0.004725471,-0.0671203,-0.2017536,-0.3368375,0.4356141,0.8226754,5.579337,6.193564,-39.20873,993.9548
1.011644840,-0.004723988,-0.1266585,-0.01808957,-0.333974,0.4396046,0.8259889,5.579337,6.193564,-39.20873,993.9548
1.016635895,-0.2525305,-0.06703836,-0.0792784,-0.3304772,0.4353169,0.8264951,5.579337,6.193564,-39.20873,993.9548
1.019134045,-0.06656485,-0.06701729,-0.01805329,-0.3318545,0.4304454,0.827486,5.579337,6.193564,-39.20873,993.9548
1.024129868,-0.06656196,0.1116466,-0.07928061,-0.3339506,0.4381101,0.8231336,6.308393,6.595294,-38.32375,993.9548
1.029125214,-0.252348,0.1116513,-0.0180306,-0.3345097,0.4419626,0.8216735,6.308393,6.595294,-38.32375,993.9548
1.031623364,-0.2522687,0.05205691,-0.07922514,-0.3349159,0.4376424,0.8260035,6.308393,6.595294,-38.32375,993.9548
1.036619186,-0.06622399,-0.2456787,0.2268064,-0.3326039,0.4443731,0.8173561,6.308393,6.595294,-38.32375,993.9548
1.039117336,-0.2520894,-0.2456016,0.1043348,-0.3325318,0.4405294,0.8202495,6.308393,6.595294,-38.32375,993.9548
1.044112682,-0.4377979,-0.007247489,-0.01813118,-0.3300524,0.4386858,0.8236048,6.308393,6.595294,-38.32375,993.9548
1.046610355,-0.4996224,-0.2454824,-0.1405259,-0.3316233,0.4444521,0.821654,6.308393,6.595294,-38.32375,993.9548
1.051606655,-0.189576,-0.1857876,-0.1404761,-0.3330891,0.4444077,0.8206998,6.308393,6.595294,-38.32375,993.9548
1.054104328,-0.3134406,0.1120673,-0.1404319,-0.3320838,0.4430115,0.8235751,6.308393,6.595294,-38.32375,993.9548
1.059099674,-0.2513011,-0.1262778,-0.2015055,-0.3368589,0.4365267,0.8183699,6.308393,6.595294,-38.32375,993.9548
1.064095497,-0.3130858,0.1715794,-0.07897846,-0.3324839,0.4381674,0.8250429,6.308393,6.595294,-38.32375,993.9548
1.066593647,-0.2510254,0.1119661,-0.2625543,-0.3334839,0.4396409,0.8278991,6.308393,6.595294,-38.32375,993.9548
1.071589470,-0.3747724,0.05237393,-0.2624278,-0.3349807,0.4409815,0.8216807,5.218301,5.825252,-38.75508,993.9548
1.074087143,-0.3746547,0.2310354,-0.2623453,-0.3329618,0.4376974,0.8269573,5.218301,5.825252,-38.75508,993.9548
1.079082966,-0.3744971,0.1714058,-0.2621613,-0.3383437,0.4380413,0.8250473,5.218301,5.825252,-38.75508,993.9548
1.081581116,-0.3743795,0.1713519,-0.3232791,-0.3324171,0.4342463,0.8222049,5.218301,5.825252,-38.75508,993.9548
1.086576939,-0.3741443,0.1117224,-0.07829447,-0.3333161,0.4298512,0.8217592,5.218301,5.825252,-38.75508,993.9548
1.091572285,-0.4358324,0.1116896,-0.2006072,-0.3349155,0.4376489,0.8264811,5.218301,5.825252,-38.75508,993.9548
1.094069958,-0.5596197,0.1712139,-0.2005442,-0.3348874,0.435611,0.8193306,5.218301,5.825252,-38.75508,993.9548
1.099066257,-0.5592681,-0.06707478,-0.3228186,-0.3334732,0.4385737,0.8207417,5.218301,5.825252,-38.75508,993.9548
1.101563931,-0.4971303,-0.0670537,-0.2003168,-0.3291058,0.4401047,0.8192952,5.218301,5.825252,-38.75508,993.9548
1.106559277,-0.4967596,-0.1265709,-0.2001717,-0.3335694,0.4445132,0.8292973,5.218301,5.825252,-38.75508,993.9548
1.109057426,-0.5585656,0.05214679,-0.3225093,-0.3339992,0.4410734,0.8269338,5.218301,5.825252,-38.75508,993.9548
1.114053249,-0.5582342,-0.06702328,-0.2611257,-0.3382633,0.4337059,0.8274665,5.218301,5.825252,-38.75508,993.9548
1.116551399,-0.4341347,-0.1265615,-0.2610436,-0.3344029,0.4361777,0.8245807,5.218301,5.825252,-38.75508,993.9548
1.121547222,-0.495824,-0.06696014,-0.3832416,-0.3325378,0.4410534,0.8231117,4.837967,6.546602,-39.21363,993.9548
1.126542568,-0.6193978,-0.186018,-0.3830585,-0.3320622,0.4414912,0.8188094,4.837967,6.546602,-39.21363,993.9548
1.129040718,-0.6192032,-0.1264002,-0.3829382,-0.3339537,0.438065,0.8197902,4.837967,6.546602,-39.21363,993.953
1.134036541,-0.7426605,-0.06676152,-0.2602972,-0.3364178,0.4395199,0.8236026,4.837967,6.546602,-39.21363,993.953
1.136534691,-0.7424272,-0.2454184,-0.3214156,-0.3363753,0.4370805,0.8226647,4.837967,6.546602,-39.21363,993.953
1.141529560,-0.7420192,-0.185705,-0.3824139,-0.3368847,0.4385968,0.8279085,4.837967,6.546602,-39.21363,993.953
1.144027710,-0.7417861,-0.1260873,-0.443494,-0.3344432,0.4386493,0.8279067,4.837967,6.546602,-39.21363,993.953
1.149023533,-0.9271868,-0.1855674,-0.4432346,-0.3349164,0.437636,0.8255258,4.837967,6.546602,-39.21363,993.953
1.154019833,-0.8027385,-0.3641287,-0.4429561,-0.333883,0.4342019,0.8212508,4.837967,6.546602,-39.21363,993.953
1.156517029,-0.9264106,-0.304455,-0.3816168,-0.3349328,0.4386195,0.8264742,4.837967,6.546602,-39.21363,993.953
1.161512852,-0.8639054,-0.3638418,-0.2589382,-0.3343426,0.4327742,0.8241273,4.837967,6.546602,-39.21363,993.953
1.164011002,-0.863634,-0.1850496,-0.1976566,-0.3314583,0.4352315,0.8217196,4.837967,6.546602,-39.21363,993.953
1.169006825,-0.7391673,-0.4231519,-0.3810754,-0.3359486,0.4404752,0.8216849,4.837967,6.546602,-39.21363,993.953
1.171504021,-1.048746,-0.3634596,-0.3197555,-0.3359936,0.4434901,0.8293061,5.573179,6.570948,-38.76869,993.953
1.176500320,-1.110029,-0.36325,-0.5030975,-0.3320274,0.43955,0.8188232,5.573179,6.570948,-38.76869,993.953
1.181496143,-0.9854662,-0.2439219,-0.4416005,-0.3359152,0.4385147,0.8202659,5.573179,6.570948,-38.76869,993.953
1.183994293,-0.9851566,-0.3034045,-0.5026619,-0.3368287,0.435743,0.8322278,5.573179,6.570948,-38.76869,993.953
1.188989639,-1.170404,-0.4222951,-0.5023654,-0.3358669,0.4361591,0.8255369,5.573179,6.570948,-38.76869,993.953
1.191487312,-1.108075,-0.4221625,-0.3798072,-0.3359152,0.4385147,0.8202659,5.573179,6.570948,-38.76869,993.953
1.196483135,-1.169302,-0.3624128,-0.4406919,-0.3344309,0.4382156,0.8317311,5.573179,6.570948,-38.76869,993.953
1.198981285,-1.168934,-0.4814175,-0.3793532,-0.3339558,0.4386469,0.8269511,5.573179,6.570948,-38.76869,993.953
1.203976631,-1.106199,-0.3024746,-0.5626771,-0.3353483,0.434164,0.8207743,5.573179,6.570948,-38.76869,993.953
1.206474781,-1.105851,-0.4810575,-0.3176995,-0.3349126,0.4370798,0.8202755,5.573179,6.570948,-38.76869,993.953
1.211472035,-1.352927,-0.1830149,-0.4399003,-0.3349954,0.4419908,0.8245395,5.573179,6.570948,-38.76869,993.953
1.216466427,-1.16625,-0.2424592,-0.439624,-0.3334167,0.4357263,0.8255386,5.573179,6.570948,-38.76869,993.953
1.218964577,-1.165883,-0.3615017,-0.3782856,-0.3358213,0.4337648,0.8279424,5.573179,6.570948,-38.76869,993.953
1.223959923,-1.103227,-0.3612559,-0.3781249,-0.3334944,0.4401004,0.8259851,5.199167,6.923411,-39.22082,993.953
1.226457596,-1.164843,-0.3611424,-0.5616067,-0.3353929,0.4371853,0.828873,5.199167,6.923411,-39.22082,993.953
1.231453896,-1.164092,-0.3013936,-0.3776917,-0.3318307,0.4289573,0.8251083,5.199167,6.923411,-39.22082,993.953
1.233951569,-1.039802,-0.122621,-0.2551727,-0.336179,0.4264813,0.8284721,5.199167,6.923411,-39.22082,993.953
1.238946915,-1.101091,-0.2416439,-0.3773935,-0.3392504,0.4341444,0.8255532,5.199167,6.923411,-39.22082,993.953
1.243943214,-1.100399,-0.1819328,-0.4383951,-0.333803,0.4298601,0.8231924,5.199167,6.923411,-39.22082,993.953
1.246440888,-1.100054,-0.2414349,-0.1934566,-0.335817,0.4332151,0.8231696,5.199167,6.923411,-39.22082,993.953
1.251436710,-1.037401,-0.1221646,-0.1933735,-0.3323537,0.4308879,0.8250948,5.199167,6.923411,-39.22082,993.953
1.253934383,-1.037075,-0.3008042,-0.254513,-0.3295131,0.4363794,0.8317413,5.199167,6.923411,-39.22082,993.953
1.258930206,-1.160367,-0.3601184,-0.3155532,-0.3281252,0.4401837,0.823593,5.199167,6.923411,-39.22082,993.953
1.261428356,-1.036078,-0.2408866,-0.1930537,-0.3295293,0.4367552,0.8236183,5.199167,6.923411,-39.22082,993.953
1.266424179,-1.035427,-0.3597791,-0.192894,-0.3407507,0.4366553,0.8341342,5.199167,6.923411,-39.22082,993.953
1.268921375,-1.035102,-0.1809881,-0.376434,-0.3358264,0.4343017,0.8317598,5.199167,6.923411,-39.22082,993.953
1.273917198,-0.910547,-0.3594962,-0.3150358,-0.3325055,0.4396877,0.8298088,5.20582,6.57152,-38.32146,993.953
1.278913498,-1.219785,-0.4783702,-0.2536376,-0.3338576,0.4333473,0.8298548,5.20582,6.57152,-38.32146,993.953
1.281411171,-1.033516,-0.1804235,-0.3147582,-0.3391518,0.4288512,0.8289347,5.20582,6.57152,-38.32146,993.953
1.286406517,-0.6611525,-0.1802914,-0.3145989,-0.3357952,0.4323089,0.8279527,5.20582,6.57152,-38.32146,993.953
1.288904667,-0.8468311,-0.2993534,-0.3145,-0.3358209,0.4337713,0.8284199,5.20582,6.57152,-38.32146,993.953
1.293900490,-0.7843565,-0.239606,-0.1919213,-0.3353018,0.4317826,0.8241349,5.20582,6.57152,-38.32146,993.953
1.296398640,-0.9080343,-0.1799714,-0.191861,-0.3352116,0.426367,0.8184415,5.20582,6.57152,-38.32146,993.953
1.301393986,-0.8454822,-0.2989208,-0.3752834,-0.3353103,0.432882,0.8336803,5.20582,6.57152,-38.32146,993.953
1.306389808,-0.4732175,-0.1200551,-0.1303045,-0.3314401,0.4342738,0.8226818,5.20582,6.57152,-38.32146,993.953
1.308887958,-0.535031,-0.239136,-0.1914638,-0.3347922,0.4308805,0.82844,5.20582,6.57152,-38.32146,993.953
1.313883781,-0.4727522,-0.4771856,-0.06898154,-0.3338004,0.4298987,0.8260581,5.20582,6.57152,-38.32146,993.953
1.316381931,-0.4726037,-0.4174764,-0.1301601,-0.3347984,0.4307903,0.8217533,5.20582,6.57152,-38.32146,993.953
1.321377277,-0.4723457,-0.3576735,-0.007735573,-0.3356606,0.4250939,0.8327807,5.566691,6.931336,-39.22158,993.953
1.323874950,-0.4721973,-0.5957983,-0.06893335,-0.3327686,0.4270531,0.8294215,5.566691,6.931336,-39.22158,993.953
1.328870773,-0.347957,-0.2977024,-0.06892849,-0.3387393,0.4332616,0.8312913,5.566691,6.931336,-39.22158,993.953
1.333866119,-0.5336442,-0.595237,-0.06888518,-0.332422,0.4341754,0.8169512,5.566691,6.931336,-39.22158,993.953
1.336364269,-0.5334765,-0.4759314,0.05353686,-0.3333846,0.4337465,0.8226867,5.566691,6.931336,-39.22158,993.953
1.341360092,-0.5331414,-0.5351543,-0.007716194,-0.3324892,0.43809,0.8193115,5.566691,6.931336,-39.22158,993.953
1.343858242,-0.3470877,-0.296749,-0.374915,-0.3318687,0.4314611,0.8308225,5.566691,6.931336,-39.22158,993.953
1.348854065,-0.2849075,-0.5347623,-0.1299556,-0.3334706,0.4386123,0.8236074,5.566691,6.931336,-39.22158,993.953
1.351351261,-0.2228559,-0.3559164,-0.1299147,-0.3378422,0.437631,0.8298266,5.566691,6.931336,-39.22158,993.953
1.356347561,-0.2846585,-0.534352,-0.1298331,-0.3327759,0.4275576,0.8308508,5.566691,6.931336,-39.22158,993.953
1.358845234,-0.09868283,-0.4746249,-0.06859212,-0.3318311,0.4289508,0.8246307,5.566691,6.931336,-39.22158,993.953
1.363843918,-0.0985819,-0.4148422,0.05381292,-0.3353283,0.433232,0.8236468,5.566691,6.931336,-39.22158,993.953
1.368836880,-0.03648002,-0.1168225,0.05381757,-0.3333715,0.4333256,0.8274664,5.566691,6.931336,-39.22158,993.953
1.371334553,0.08745563,-0.2359045,-0.06859974,-0.3344314,0.4382091,0.8312535,4.838132,6.555099,-38.76717,993.953
1.376330376,-0.09844666,-0.2357562,0.1150247,-0.3338186,0.4308564,0.8250959,4.838132,6.555099,-38.76717,993.953
1.378828525,0.2113947,-0.05700428,-0.0074118,-0.3362675,0.4313085,0.8265271,4.838132,6.555099,-38.76717,993.953
1.383823871,0.1493193,-0.1166213,0.05377384,-0.3348952,0.4361092,0.8202825,4.838132,6.555099,-38.76717,993.953
1.386322021,0.2731966,-0.2357033,-0.007443257,-0.3349237,0.4381406,0.8269553,4.838132,6.555099,-38.76717,993.953
1.391317844,0.334987,0.1217819,0.237343,-0.3319061,0.4333636,0.8279429,4.838132,6.555099,-38.76717,993.953
1.396313667,0.3967192,-0.0569164,0.2984326,-0.3333294,0.4308798,0.8260508,4.838132,6.555099,-38.76717,993.953
1.398815632,0.2726704,0.1217794,0.1147382,-0.3314605,0.4351993,0.8193315,4.838132,6.555099,-38.76717,993.953
1.403807163,0.4583075,0.1217216,0.2370857,-0.3339175,0.4367573,0.8307859,4.838132,6.555099,-38.76717,993.953
1.406304836,0.3342393,0.002564747,0.2982115,-0.3329262,0.435769,0.8279264,4.838132,6.555099,-38.76717,993.953
1.411301136,0.5818583,0.002450868,0.05326176,-0.3372125,0.4293012,0.8231983,4.838132,6.555099,-38.76717,993.953
1.413798809,0.4577513,-0.1166685,0.2368456,-0.3285145,0.4348865,0.8274524,4.838132,6.555099,-38.76717,993.9548
1.418794155,0.5194648,-0.05705462,0.1754966,-0.3300553,0.4392549,0.8298104,4.838132,6.555099,-38.76717,993.9548
1.421292305,0.5812637,-0.05703669,0.2366417,-0.3334948,0.440094,0.8255075,5.940703,6.578872,-38.76946,993.9548
1.426288128,0.7048227,0.1216022,0.1752736,-0.3372442,0.4312875,0.8265278,5.940703,6.578872,-38.76946,993.9548
1.431283474,0.5184937,0.3001476,0.2363445,-0.3338767,0.4342921,0.8279375,5.940703,6.578872,-38.76946,993.9548
1.433782101,0.6422549,0.002256773,0.1138698,-0.3342526,0.4279663,0.8275051,5.940703,6.578872,-38.76946,993.9548
1.438777447,0.6418126,0.3000331,0.1749985,-0.3334263,0.4361987,0.82458,5.940703,6.578872,-38.76946,993.9548
1.441275596,0.7655351,0.2403796,0.0525431,-0.3300328,0.4377474,0.8259999,5.940703,6.578872,-38.76946,993.9548
1.446271419,0.7030531,0.1807254,0.2972724,-0.3314969,0.4377288,0.8269562,5.940703,6.578872,-38.76946,993.9548
1.448768616,0.6408702,0.3593465,0.2359788,-0.3348273,0.4328153,0.8279486,5.940703,6.578872,-38.76946,993.9548
1.453764439,0.640487,0.1209397,0.3582502,-0.3359126,0.4385534,0.8231316,5.940703,6.578872,-38.76946,993.9548
1.458760738,0.825893,0.3591009,0.4192446,-0.335919,0.4390709,0.8255162,5.940703,6.578872,-38.76946,993.9548
1.461258411,0.8875957,0.4185474,0.3579127,-0.3353704,0.4356778,0.8250624,5.940703,6.578872,-38.76946,993.9548
1.466253757,0.763036,0.1205067,0.2965261,-0.3358349,0.4341792,0.8226851,5.940703,6.578872,-38.76946,993.9548
1.468751907,0.7008342,0.1800281,0.1740325,-0.3343203,0.4318745,0.829388,5.940703,6.578872,-38.76946,993.9548
1.473747730,0.8242792,0.179915,0.2351042,-0.3314501,0.4347397,0.8212455,4.831809,6.923984,-38.77359,993.9548
1.476245880,0.8859823,0.1798585,0.3574307,-0.3305425,0.4386496,0.8216947,4.831809,6.923984,-38.77359,993.9548
1.481241226,0.8854257,0.3583486,0.296006,-0.3314395,0.4348944,0.8327083,4.831809,6.923984,-38.77359,993.9548
1.486237049,0.7609842,0.2985829,0.3570202,-0.3338482,0.4322608,0.8212646,4.831809,6.923984,-38.77359,993.9548
1.488735199,0.636821,0.2389298,0.4181083,-0.3348877,0.4362187,0.8284019,4.831809,6.923984,-38.77359,993.9548
1.493731022,0.8223072,0.1792578,0.3566646,-0.3348077,0.4318769,0.8303435,4.831809,6.923984,-38.77359,993.9548
1.496228218,0.6361626,0.2983201,0.4177528,-0.3324265,0.4353329,0.8307951,4.831809,6.923984,-38.77359,993.9548
1.501224518,0.7596676,0.05985804,0.2951092,-0.3349662,0.44058,0.8278933,4.831809,6.923984,-38.77359,993.9548
1.503722191,0.6355048,0.05983923,0.3562166,-0.3343855,0.4352071,0.8245876,4.831809,6.923984,-38.77359,993.9548
1.508718014,0.6350472,0.1193422,0.3560121,-0.3339346,0.4371201,0.8217077,4.831809,6.923984,-38.77359,993.9548
1.511216164,0.6968098,0.178864,0.2947,-0.3343283,0.4317585,0.8207908,4.831809,6.923984,-38.77359,993.9548
1.516211510,0.5105442,0.2382923,0.2945149,-0.3304899,0.4357442,0.8221931,4.831809,6.923984,-38.77359,993.9548
1.521207332,0.6340698,0.05946466,0.2331297,-0.3270804,0.436303,0.8221871,5.579337,6.193564,-39.20873,993.9548
1.523705482,0.4479842,0.05944598,0.1718563,-0.3320103,0.4391871,0.8279014,5.579337,6.193564,-39.20873,993.9548
1.528700828,0.6955512,0.2975523,0.1717675,-0.3344026,0.43557,0.8155094,5.579337,6.193564,-39.20873,993.9548
1.531198501,0.8192569,0.2378995,0.2941139,-0.3372034,0.4288224,0.8236794,5.579337,6.193564,-39.20873,993.9548
1.536194801,0.5710106,0.2377688,0.04918605,-0.3332929,0.4289644,0.8279752,5.579337,6.193564,-39.20873,993.9548
1.538692474,0.5088692,0.1185755,0.171571,-0.3319028,0.4328009,0.8222149,5.579337,6.193564,-39.20873,993.9548
1.543688774,0.6324931,0.1780603,0.2326057,-0.3348542,0.4342582,0.8269829,5.579337,6.193564,-39.20873,993.9548
1.548684120,0.6940773,0.1183891,0.1712594,-0.3339776,0.4395531,0.822168,5.579337,6.193564,-39.20873,993.9548
1.551181793,0.4460109,0.1779112,0.1712056,-0.3358574,0.4356866,0.8264956,5.579337,6.193564,-39.20873,993.9548
1.556178093,0.3219038,0.2373587,0.2934985,-0.3377928,0.4346805,0.8269816,5.579337,6.193564,-39.20873,993.9548
1.558675766,0.3837648,0.1777249,0.232206,-0.3319279,0.4342697,0.8231598,5.579337,6.193564,-39.20873,993.9548
1.563671112,0.4454469,0.1180352,0.2320986,-0.3286322,0.4411245,0.8221536,5.579337,6.193564,-39.20873,993.9548
1.566169262,0.3833448,0.05843883,0.0484251,-0.33252,0.4400892,0.8235962,5.579337,6.193564,-39.20873,993.9548
1.571165085,0.3212003,0.1179614,0.1096333,-0.3354155,0.4380786,0.8231347,5.205655,6.563023,-38.76793,993.9548
1.573664188,0.3210994,0.237043,0.1707991,-0.3363343,0.4352296,0.8293652,5.205655,6.563023,-38.76793,993.959
1.578658581,0.3828793,0.2369128,0.04829139,-0.3368293,0.4351224,0.8222013,5.205655,6.563023,-38.76793,993.959
1.583654404,0.5065435,0.05810474,-0.01291993,-0.3294459,0.4324648,0.8293809,5.205655,6.563023,-38.76793,993.959
1.586152077,0.3824601,0.1772051,0.04828434,-0.3358404,0.4347096,0.8260249,5.205655,6.563023,-38.76793,993.959
1.591148376,0.5061246,0.1770563,0.1706352,-0.3352216,0.426833,0.8170052,5.205655,6.563023,-38.76793,993.959
1.593645573,0.6298898,0.1174414,0.2317818,-0.3357159,0.4273464,0.8198677,5.205655,6.563023,-38.76793,993.959
1.598641395,0.7533599,0.2364675,0.3540366,-0.3378128,0.4356124,0.824109,5.205655,6.563023,-38.76793,993.959
1.601139545,0.7531232,0.2959525,0.3539253,-0.3354512,0.4400068,0.8221656,5.205655,6.563023,-38.76793,993.959
1.606135368,0.5668027,0.1767041,0.353703,-0.3314987,0.4377031,0.8250456,5.205655,6.563023,-38.76793,993.959
1.611130714,0.6284087,0.05745582,0.2311189,-0.3304868,0.4357893,0.8255364,5.205655,6.563023,-38.76793,993.959
1.613628864,0.5042871,0.05743777,0.2922465,-0.3304795,0.4352847,0.8241071,5.205655,6.563023,-38.76793,993.959
1.618624687,0.4419887,0.05740169,0.2308434,-0.3339128,0.436214,0.8264908,5.199332,6.931908,-38.77435,993.959
1.621122837,0.6277362,-0.002175644,0.1083705,-0.3339618,0.4391709,0.8298134,5.199332,6.931908,-38.77435,993.959
1.626118183,0.3795129,-0.002192989,0.1082832,-0.329449,0.4324197,0.8260375,5.199332,6.931908,-38.77435,993.959
1.628615856,0.5033179,-0.0617516,0.1082492,-0.3325013,0.439138,0.825036,5.199332,6.931908,-38.77435,993.959
1.633612156,0.379058,-0.1808875,-0.07538099,-0.3349711,0.4405091,0.8226394,5.199332,6.931908,-38.77435,993.959
1.636109829,0.2550147,-0.24039,0.04704309,-0.3295554,0.4382111,0.8236079,5.199332,6.931908,-38.77435,993.959
1.641105652,0.4406824,-0.06161723,0.2305757,-0.3314746,0.4368291,0.8322169,5.199332,6.931908,-38.77435,993.959
1.646100998,0.5023872,-0.002037928,-0.01429306,-0.3349264,0.4381019,0.8240896,5.199332,6.931908,-38.77435,993.959
1.648599148,0.316343,0.2361999,0.04691163,-0.3295111,0.4357975,0.8245805,5.199332,6.931908,-38.77435,993.959
1.653594971,0.5020306,0.1765671,0.04686294,-0.3319618,0.4362238,0.8241012,5.199332,6.931908,-38.77435,993.959
1.656093120,0.4399107,0.2360709,-0.1367524,-0.3329887,0.4391403,0.8259916,5.199332,6.931908,-38.77435,993.9608
1.661088467,0.563578,0.1763633,-0.07548551,-0.3343021,0.4309168,0.8303501,5.199332,6.931908,-38.77435,993.9608
1.663586140,0.5014389,0.1167486,-0.07546179,-0.3366964,0.4278816,0.8251188,5.199332,6.931908,-38.77435,993.9608
1.668582439,0.6869907,0.2953531,0.04696679,-0.3372815,0.43319,0.8236483,5.579502,6.202061,-38.76227,993.9608
1.673578262,0.5626544,-0.002572767,0.04689883,-0.3305138,0.4372323,0.8245708,5.579502,6.202061,-38.76227,993.9608
1.676075458,0.810326,0.05698734,0.0468841,-0.3363352,0.4352167,0.8284099,5.579502,6.202061,-38.76227,993.9608
1.681071758,0.9336632,0.05697025,0.2304168,-0.335373,0.4356391,0.8221967,5.579502,6.202061,-38.76227,993.9608
1.683569431,0.7474836,0.05695235,0.2303444,-0.3367741,0.4322557,0.8255653,5.579502,6.202061,-38.76227,993.9608
1.688565731,0.8090346,0.05697271,0.2914576,-0.3318736,0.4313902,0.8255686,5.579502,6.202061,-38.76227,993.9608
1.691062927,0.7468183,0.1165141,0.2301658,-0.3348847,0.4356497,0.8221964,5.579502,6.202061,-38.76227,993.9608
1.696058750,0.8702539,0.1164596,0.2299828,-0.3329901,0.439121,0.8245588,5.579502,6.202061,-38.76227,993.9608
1.698556900,0.9319425,0.1759823,0.2299105,-0.3358687,0.4361333,0.8236265,5.579502,6.202061,-38.76227,993.9608
1.703554630,1.117204,0.1163312,0.290947,-0.3363904,0.4380834,0.8250458,5.579502,6.202061,-38.76227,993.9608
1.708548069,1.116464,0.05671752,0.1684023,-0.3299602,0.4339102,0.8293709,5.579502,6.202061,-38.76227,993.9608
1.711046219,1.116113,0.4140555,0.4131503,-0.3290092,0.4353935,0.8298374,5.579502,6.202061,-38.76227,993.9608
1.716042042,1.36326,0.2351362,0.2905095,-0.3305411,0.4386689,0.8231276,5.579502,6.202061,-38.76227,993.9608
1.718539715,1.424794,0.2350623,0.4128187,-0.3319582,0.4362753,0.8279222,5.573179,6.570948,-38.76869,993.9608
1.723535061,1.423879,0.2944178,0.4125786,-0.3290415,0.4367592,0.8231403,5.573179,6.570948,-38.76869,993.9608
1.726033211,1.36147,0.1752067,0.4124489,-0.3324926,0.4386527,0.8250394,5.573179,6.570948,-38.76869,993.9608
1.731029034,1.732329,0.2345811,0.4121898,-0.3368544,0.4365911,0.8231461,5.573179,6.570948,-38.76869,993.9608
1.736025333,1.42143,0.4131491,0.5954738,-0.3335071,0.4405277,0.8216831,5.573179,6.570948,-38.76869,993.9608
1.738526344,1.420984,0.4725786,0.5952867,-0.3380052,0.4462697,0.8226001,5.573179,6.570948,-38.76869,993.9608
1.743518352,1.358109,0.2340632,0.5337125,-0.3368453,0.4361123,0.8236272,5.573179,6.570948,-38.76869,993.9608
1.746016502,1.605531,0.1744304,0.594745,-0.3368086,0.4335892,0.8164802,5.573179,6.570948,-38.76869,993.9608
1.751012325,1.542619,0.3529426,0.7167526,-0.3340539,0.4439465,0.8240474,5.573179,6.570948,-38.76869,993.9608
1.753510475,1.480172,0.1145945,0.594127,-0.3339553,0.4386534,0.8274287,5.573179,6.570948,-38.76869,993.9608
1.758505821,1.355337,0.4123003,0.4713342,-0.3295875,0.4401909,0.8264598,5.573179,6.570948,-38.76869,993.9608
1.763501644,1.416467,0.1738415,0.7157812,-0.3359008,0.4381132,0.8264784,5.573179,6.570948,-38.76869,993.9608
1.765999794,1.292098,0.2333462,0.6543561,-0.3359221,0.4390258,0.8221729,5.573179,6.570948,-38.76869,993.9608
1.770995617,1.415152,0.4118587,0.7151068,-0.3343025,0.4309103,0.8298725,5.940538,6.570375,-39.21592,993.9608
1.773492813,1.538632,0.4117294,0.7148821,-0.335373,0.4356391,0.8221967,5.940538,6.570375,-39.21592,993.9608
1.778488636,1.537685,0.1732709,0.5919942,-0.3320395,0.4405979,0.8245477,5.940538,6.570375,-39.21592,993.9608
1.780986786,1.47524,0.2327758,0.6530084,-0.3314574,0.4352444,0.8226749,5.940538,6.570375,-39.21592,993.9608
1.785982609,1.412312,0.2921515,0.5913787,-0.3291243,0.4416702,0.8274043,5.940538,6.570375,-39.21592,993.9608
1.788480282,1.349906,0.4111783,0.4687925,-0.3276928,0.4436622,0.8288223,5.940538,6.570375,-39.21592,993.9608
1.793476105,1.472924,0.29182,0.529679,-0.3334741,0.4385608,0.8197864,5.940538,6.570375,-39.21592,993.9608
1.798471928,1.410075,0.5298178,0.5905464,-0.337457,0.4428702,0.8216687,5.940538,6.570375,-39.21592,993.9608
1.800970077,1.285708,0.5892107,0.5291607,-0.3339762,0.4395724,0.8236008,5.940538,6.570375,-39.21592,993.9608
1.805965424,1.346862,0.350622,0.4676281,-0.3349736,0.4410846,0.8293226,5.940538,6.570375,-39.21592,993.9608
1.808463097,1.408401,0.2909526,0.6510818,-0.3369825,0.4439028,0.8254823,5.940538,6.570375,-39.21592,993.9608
1.813459396,1.345516,0.5884914,0.4671299,-0.3320065,0.438631,0.822651,5.940538,6.570375,-39.21592,993.9608
1.815957069,1.283131,0.469188,0.4669831,-0.3324532,0.4361682,0.8207582,5.940538,6.570375,-39.21592,993.9565
1.820952415,1.344287,0.4688932,0.4666705,-0.3373501,0.4370853,0.8245759,5.940868,6.587369,-38.32299,993.9565
1.825948238,1.281461,0.5281579,0.5887585,-0.3343586,0.4337641,0.8255531,5.940868,6.587369,-38.32299,993.9565
1.828446388,1.466944,0.527992,0.5885735,-0.3368084,0.4342033,0.8260291,5.940868,6.587369,-38.32299,993.9565
1.833442211,1.589986,0.5277352,0.7105849,-0.3325774,0.4429237,0.8178441,5.940868,6.587369,-38.32299,993.9565
1.835940361,1.465562,0.3488915,0.7103617,-0.3354374,0.4389847,0.8183516,5.940868,6.587369,-38.32299,993.9565
1.840935707,1.340737,0.6464127,0.6487153,-0.3314739,0.4362278,0.8236232,5.940868,6.587369,-38.32299,993.9565
1.843433857,1.278354,0.5866503,0.5261111,-0.330595,0.4415549,0.8211964,5.940868,6.587369,-38.32299,993.9565
1.848429680,1.277512,0.4671632,0.5869231,-0.3314861,0.4366616,0.8197988,5.940868,6.587369,-38.32299,993.9565
1.850927353,1.029262,0.4670164,0.709139,-0.3349221,0.4375522,0.8193168,5.940868,6.587369,-38.32299,993.9565
1.855926990,1.400271,0.526301,0.5863316,-0.3301054,0.4415847,0.8226289,5.940868,6.587369,-38.32299,993.9565
1.860918999,1.275467,0.3473112,0.6470866,-0.3365779,0.4488114,0.8287907,5.940868,6.587369,-38.32299,993.9565
1.863416672,1.275066,0.3472021,0.5856831,-0.3330564,0.4430485,0.8278745,5.940868,6.587369,-38.32299,993.9565
1.868412971,1.336228,0.4065432,0.6464384,-0.3330408,0.4420521,0.8259709,5.946696,6.192992,-39.65596,993.9565
1.870910168,1.273846,0.4064155,0.6462353,-0.3340001,0.4410605,0.8259786,5.946696,6.192992,-39.65596,993.9565
1.875905991,1.211122,0.5252788,0.7070488,-0.3355002,0.4429637,0.8254882,5.946696,6.192992,-39.65596,993.9565
1.878404140,1.272704,0.4655545,0.8292271,-0.334057,0.4439014,0.820704,5.946696,6.192992,-39.65596,993.9565
1.883399963,1.086096,0.4057401,0.5839438,-0.3295988,0.4406375,0.8235906,5.946696,6.192992,-39.65596,993.9565
1.888395309,0.9614894,0.286404,0.5835577,-0.3306188,0.443043,0.8235741,5.946696,6.192992,-39.65596,993.9565
1.890893459,0.8992253,0.2267548,0.3997738,-0.3268544,0.4508467,0.8201725,5.946696,6.192992,-39.65596,993.9565
1.895889282,0.9605836,0.1670717,0.215922,-0.3219148,0.4481044,0.8249658,5.946696,6.192992,-39.65596,993.9565
1.898386955,0.9602818,0.1670193,0.2770544,-0.328752,0.4479445,0.8240157,5.946696,6.192992,-39.65596,993.959
1.903382301,0.8977358,0.2264549,-0.2126636,-0.3326477,0.4467932,0.8168612,5.946696,6.192992,-39.65596,993.959
1.905880451,0.7735297,0.2263838,0.03220404,-0.3369388,0.4408686,0.8164283,5.946696,6.192992,-39.65596,993.959
1.910876274,0.8969485,0.2858196,0.215746,-0.3368266,0.4351611,0.8250669,5.946696,6.192992,-39.65596,993.959
1.915872574,0.8344424,0.1665401,0.215572,-0.334459,0.4390315,0.8202614,5.946696,6.192992,-39.65596,993.959
1.918369770,0.648294,0.1664878,0.2155042,-0.3358887,0.4370652,0.8207539,5.205655,6.563023,-38.76793,993.959
1.923365593,0.8337729,0.1663645,0.03180671,-0.3339511,0.4381036,0.822656,5.205655,6.563023,-38.76793,993.959
1.925863743,0.7095868,-0.07192496,0.1541971,-0.3311216,0.443434,0.817362,5.205655,6.563023,-38.76793,993.959
1.930859566,0.6471789,0.1067794,0.03171907,-0.3384318,0.442875,0.8235798,5.205655,6.563023,-38.76793,993.959
1.933357716,0.8328619,0.1663052,0.03170911,-0.3369869,0.4438384,0.8207062,5.205655,6.563023,-38.76793,993.959
1.938353062,0.7083756,0.1662568,0.2764515,-0.3311254,0.4439902,0.8226123,5.205655,6.563023,-38.76793,993.959
1.940850735,0.8940393,0.3448825,0.1539643,-0.3301374,0.4435646,0.8254807,5.205655,6.563023,-38.76793,993.959
1.945847034,0.8935165,0.1064661,0.09268659,-0.3384176,0.4418593,0.8202435,5.205655,6.563023,-38.76793,993.959
1.950841904,0.8310126,0.1063805,0.2150095,-0.3291717,0.4440387,0.8230885,5.205655,6.563023,-38.76793,993.959
1.953340054,0.8307515,0.04678775,0.03134139,-0.3331034,0.4454234,0.8240362,5.205655,6.563023,-38.76793,993.959
1.958335876,0.8921918,0.2253988,0.2149031,-0.3349793,0.4410008,0.8231136,5.205655,6.563023,-38.76793,993.959
1.960834026,0.7060252,0.225328,0.1536354,-0.3355037,0.4429122,0.8216673,5.205655,6.563023,-38.76793,993.959
1.965829849,0.9533716,0.3443051,0.2147583,-0.3355246,0.4438312,0.8178394,5.205655,6.563023,-38.76793,993.959
1.968327522,0.8291479,0.2250783,0.2146908,-0.3373819,0.4384574,0.8183565,5.211813,6.185639,-39.20797,993.959
1.973323345,1.138418,0.1653589,0.1534134,-0.339852,0.4404363,0.825031,5.211813,6.185639,-39.20797,993.959
1.978319168,1.261627,0.1057518,0.2145365,-0.3335062,0.4405406,0.8226383,5.211813,6.185639,-39.20797,993.9572
1.980817318,1.261231,0.2843965,0.1532688,-0.3370081,0.4453652,0.8259496,5.211813,6.185639,-39.20797,993.9572
1.985812664,1.508209,0.3437585,0.1531533,-0.336365,0.4360068,0.8150297,5.211813,6.185639,-39.20797,993.9572
1.988310337,1.321849,0.2840911,0.09190502,-0.3330964,0.4449123,0.8221292,5.211813,6.185639,-39.20797,993.9572
1.993306637,1.506846,0.1648128,0.2141708,-0.3305667,0.4401312,0.8235948,5.211813,6.185639,-39.20797,993.9572
1.995804310,1.506373,0.2838796,0.3365039,-0.3349916,0.4414346,0.8192891,5.211813,6.185639,-39.20797,993.9572
2.000799656,1.443367,0.28372,0.4587314,-0.3315356,0.4396121,0.8226438,5.211813,6.185639,-39.20797,993.9572
2.003297806,1.690762,0.2836308,0.4585872,-0.3378589,0.4380003,0.821226,5.211813,6.185639,-39.20797,993.9572
2.008293629,1.503794,0.1643528,0.3971182,-0.3369468,0.4419745,0.8264514,5.211813,6.185639,-39.20797,993.9572
2.013289452,1.812582,0.4620461,0.6416118,-0.3369083,0.4394772,0.8212149,5.211813,6.185639,-39.20797,993.9572
2.015787125,1.75005,0.3427823,0.6414102,-0.3349629,0.4400173,0.8221653,5.211813,6.185639,-39.20797,993.9572
2.020782948,1.687028,0.5212262,0.5186838,-0.3335037,0.4399651,0.8159551,5.579502,6.202061,-38.76227,993.9572
2.023281097,1.872384,0.2828252,0.6409212,-0.3281452,0.4411157,0.8207204,5.579502,6.202061,-38.76227,993.9572
2.028276920,1.933189,0.5209034,0.6404802,-0.3321463,0.4463828,0.8216405,5.579502,6.202061,-38.76227,993.9572
2.030774593,1.932582,0.2825025,0.6402789,-0.3350372,0.4438289,0.8168838,5.579502,6.202061,-38.76227,993.9572
2.035769939,1.99333,0.6991841,0.8234581,-0.3326382,0.4463208,0.8178199,5.579502,6.202061,-38.76227,993.9572
2.040770531,1.806211,0.4605451,0.6393786,-0.3301659,0.4443741,0.8135334,5.579502,6.202061,-38.76227,993.9572
2.043263912,1.743682,0.6390783,0.7003779,-0.3331886,0.449688,0.8163632,5.579502,6.202061,-38.76227,993.9572
2.048259258,2.052319,0.6386955,0.577576,-0.3336464,0.448286,0.8211501,5.579502,6.202061,-38.76227,993.9572
2.050757408,1.803826,0.6980542,0.5773945,-0.330717,0.4483426,0.8206704,5.579502,6.202061,-38.76227,993.9572
2.055753231,1.802712,0.6380563,0.5770319,-0.3337624,0.4545498,0.8177618,5.579502,6.202061,-38.76227,993.9572
2.058251381,1.802146,0.6974152,0.4544501,-0.3336781,0.4502723,0.8244796,5.579502,6.202061,-38.76227,993.9572
2.063247204,1.801033,0.3396399,0.4541262,-0.3365126,0.4442569,0.814971,5.579502,6.202061,-38.76227,993.9554
2.068242550,1.923806,0.6371857,0.4538601,-0.3350067,0.4424374,0.8216704,4.844455,6.186212,-38.76074,993.9554
2.070740700,1.799278,0.4583076,0.4537176,-0.3315469,0.4400586,0.8197746,4.844455,6.186212,-38.76074,993.9554
2.075736523,1.922032,0.2793604,0.6370331,-0.3413122,0.4398615,0.8207371,4.844455,6.186212,-38.76074,993.9554
2.078234673,1.921428,0.4579507,0.636833,-0.3345605,0.4448937,0.8230855,4.844455,6.186212,-38.76074,993.9554
2.083229542,1.920182,0.398141,0.7587949,-0.336102,0.4486415,0.8154171,4.844455,6.186212,-38.76074,993.9554
2.085727692,1.919579,0.6362532,0.6361561,-0.3354799,0.4414241,0.8192895,4.844455,6.186212,-38.76074,993.9554
2.090723515,1.980335,0.3976536,0.6969182,-0.3315999,0.4429576,0.8187987,4.844455,6.186212,-38.76074,993.9554
2.093221664,1.979713,0.4570881,0.6966993,-0.3345554,0.4443569,0.819268,4.844455,6.186212,-38.76074,993.9554
2.098217011,2.040412,0.3377197,0.8186427,-0.3321872,0.4482338,0.81494,4.844455,6.186212,-38.76074,993.9554
2.103212833,2.101112,0.5161855,0.9405481,-0.3346887,0.4515913,0.8158728,4.844455,6.186212,-38.76074,993.9537
2.105710983,2.03849,0.3969047,0.8178522,-0.3336408,0.4477557,0.8178102,4.844455,6.186212,-38.76074,993.9537
2.110706806,2.03719,0.3371709,0.6949573,-0.3326315,0.4464174,0.8249841,4.844455,6.186212,-38.76074,993.9537
2.113204002,1.850664,0.5157429,0.6335387,-0.3360637,0.4467519,0.8192518,4.844455,6.186212,-38.76074,993.9537
2.118200302,2.035348,0.5154376,0.8779414,-0.3341191,0.4472792,0.8192469,5.573014,6.562451,-39.21516,993.9537
2.120697975,2.034709,0.2770384,0.9388659,-0.3361601,0.4520773,0.8182586,5.573014,6.562451,-39.21516,993.9537
2.125694275,1.971507,0.5746422,0.9383337,-0.3340884,0.44528,0.8149622,5.573014,6.562451,-39.21516,993.9537
2.130689144,1.846325,0.2765782,0.7541245,-0.3370337,0.4468275,0.8264169,5.573014,6.562451,-39.21516,993.9537
2.133187294,1.783783,0.3956099,0.9374881,-0.3389631,0.4452974,0.8240406,5.573014,6.562451,-39.21516,993.9537
2.138183117,1.782701,0.1571055,0.8144988,-0.3347381,0.4545417,0.8187178,5.573014,6.562451,-39.21516,993.9537
2.140681267,1.782141,0.4548527,0.8142429,-0.3317462,0.451227,0.8201727,5.573014,6.562451,-39.21516,993.9578
2.145676613,1.657078,0.2758703,0.8749123,-0.3385126,0.447204,0.8206831,5.573014,6.562451,-39.21516,993.9578
2.148174763,1.656558,0.4544616,0.6298367,-0.3331888,0.4490739,0.8068143,5.573014,6.562451,-39.21516,993.9578
2.153170586,1.717518,0.2755356,0.7517645,-0.3322445,0.4516824,0.8187368,5.573014,6.562451,-39.21516,993.9578
2.155668736,1.531092,0.3350083,0.8127285,-0.3341383,0.448224,0.8173295,5.573014,6.562451,-39.21516,993.9578
2.160664558,1.592092,0.3943384,0.8121988,-0.3366115,0.4501578,0.8206609,5.573014,6.562451,-39.21516,993.9578
2.165659905,1.28134,0.4535939,0.8116693,-0.3282581,0.4474246,0.8206755,5.573014,6.562451,-39.21516,993.9578
2.168157578,1.466824,0.3343328,0.7502141,-0.328302,0.4498446,0.8201806,5.585825,5.833177,-38.75585,993.9578
2.173153877,1.342037,0.5723412,0.6273616,-0.3302761,0.4507216,0.8163541,5.585825,5.833177,-38.75585,993.9578
2.175651550,1.217691,0.4530429,0.6271645,-0.3308646,0.4565927,0.8206116,5.585825,5.833177,-38.75585,993.9578
2.180646896,1.216906,0.3932176,0.6267897,-0.3336852,0.4501692,0.8168377,5.585825,5.833177,-38.75585,993.9561
2.183148861,1.154562,0.3930941,0.6265928,-0.3326598,0.4478411,0.8225857,5.585825,5.833177,-38.75585,993.9561
2.188140869,0.9060077,0.452369,0.4426947,-0.3341915,0.4517306,0.8254248,5.585825,5.833177,-38.75585,993.9561
2.193136692,0.905458,0.3925442,0.5035976,-0.335627,0.4496806,0.8197083,5.585825,5.833177,-38.75585,993.9561
2.195634365,0.7812493,0.213743,0.5034394,-0.3369969,0.4443043,0.8192698,5.585825,5.833177,-38.75585,993.9561
2.200630188,0.5328908,0.2730932,0.5031423,-0.3312189,0.4487465,0.8154135,5.585825,5.833177,-38.75585,993.9561
2.203128338,0.7186096,0.3325667,0.4417841,-0.3337399,0.4530424,0.8139513,5.585825,5.833177,-38.75585,993.9561
2.208124161,0.5942729,0.2727984,0.502726,-0.3385204,0.4477022,0.8216348,5.585825,5.833177,-38.75585,993.9561
2.210621357,0.2842757,0.2131535,0.5637682,-0.3354972,0.4423947,0.8192826,5.585825,5.833177,-38.75585,993.9561
2.215617180,0.7178319,0.3916788,0.6246142,-0.3365569,0.4466705,0.8139984,5.585825,5.833177,-38.75585,993.9561
2.218115330,0.7176063,0.0937592,0.624418,-0.3322318,0.4512551,0.8230388,5.218136,5.816754,-39.20155,993.9561
2.223111153,0.5313666,0.1532783,0.5627871,-0.3316994,0.4482378,0.814462,5.218136,5.816754,-39.20155,993.9561
2.228106499,0.4689928,0.2127226,0.6848147,-0.3341899,0.4511423,0.8177864,5.218136,5.816754,-39.20155,993.9561
2.230604649,0.5308076,0.1530965,0.5621992,-0.3327651,0.4530376,0.8120401,5.218136,5.816754,-39.20155,993.9561
2.235600472,0.4684925,0.2721002,0.6842656,-0.3365681,0.4477313,0.8206782,5.218136,5.816754,-39.20155,993.9561
2.238098621,0.5303074,0.2720147,0.5616502,-0.333676,0.4496904,0.8173188,5.218136,5.816754,-39.20155,993.9561
2.243093967,0.4060501,0.03368147,0.6224976,-0.3346974,0.4520766,0.8158693,5.218136,5.816754,-39.20155,993.9561
2.245591641,0.4678846,0.2123488,0.5611019,-0.3341062,0.4462442,0.8144776,5.218136,5.816754,-39.20155,993.9561
2.250587940,0.5295138,0.03359362,0.4994915,-0.3342759,0.4560081,0.8187071,5.218136,5.816754,-39.20155,993.9561
2.255583763,0.2813717,0.1526724,0.5603971,-0.3351193,0.4481385,0.8125541,5.218136,5.816754,-39.20155,993.9561
2.258081913,0.3432454,0.3313023,0.6214212,-0.3365725,0.4476669,0.8159019,5.218136,5.816754,-39.20155,993.9561
2.263076782,0.2190666,-0.02620546,0.3762109,-0.3317823,0.4531488,0.8187261,5.218136,5.816754,-39.20155,993.9561
2.265574932,0.1570358,-0.08575653,0.3760927,-0.3352569,0.4559227,0.8139316,5.218136,5.816754,-39.20155,993.9561
2.270570755,0.0329545,0.1525345,0.3146177,-0.3332414,0.4532011,0.8249361,5.218136,5.816754,-39.20155,993.9561
2.263076782,0.2190666,-0.02620546,0.3762109,-0.3317823,0.4531488,0.8187261,5.218136,5.816754,-39.20155,993.9561
2.265574932,0.1570358,-0.08575653,0.3760927,-0.3352569,0.4559227,0.8139316,5.218136,5.816754,-39.20155,993.9561
2.270570755,0.0329545,0.1525345,0.3146177,-0.3332414,0.4532011,0.8249361,5.218136,5.816754,-39.20155,993.9561
2.273068905,0.09490624,-0.1453099,0.3145189,-0.3341027,0.4462957,0.8182986,5.218136,5.816754,-39.20155,993.9561
2.278064251,-0.02909704,0.03342189,0.436664,-0.3293098,0.4518163,0.8239884,5.218136,5.816754,-39.20155,993.9561
2.283060074,0.1568075,-0.2047802,0.3751895,-0.3313235,0.4545636,0.8148944,5.218136,5.816754,-39.20155,993.9561
2.285558224,-0.02912803,-0.08559724,0.3750716,-0.3352186,0.454033,0.8177664,5.218136,5.816754,-39.20155,993.9561
2.290554046,0.03283289,-0.2046808,0.3747976,-0.3385705,0.450032,0.8144532,5.218136,5.816754,-39.20155,993.9561
2.293051243,-0.0291395,-0.1450572,0.1910792,-0.3350897,0.4467342,0.8163854,5.218136,5.816754,-39.20155,993.9561
2.298047542,-0.09104437,-0.383222,0.3745406,-0.3312345,0.4497429,0.817317,5.218136,5.816754,-39.20155,993.9561
2.300548076,-0.09101577,-0.08530506,0.4356231,-0.3361314,0.45066,0.8211347,5.218136,5.816754,-39.20155,993.9561
2.305541515,-0.09093912,-0.2043888,0.4354071,-0.3356255,0.4490922,0.81207,5.218136,5.816754,-39.20155,993.9543
2.308039188,0.03301363,-0.2043246,0.3128699,-0.3330735,0.4434114,0.8187963,5.218136,5.816754,-39.20155,993.9543
2.313034534,-0.1528739,-0.2041962,0.3126734,-0.3342238,0.4530963,0.8187279,5.218136,5.816754,-39.20155,993.9543
2.318030357,-0.02891208,-0.2040492,0.2512767,-0.3336121,0.4463384,0.8206863,5.58599,5.841673,-38.30938,993.9543
2.320528507,-0.09086509,-0.382663,0.312398,-0.3336947,0.4506417,0.815879,5.58599,5.841673,-38.30938,993.9543
2.325523853,-0.09078854,-0.2038196,0.3122017,-0.3328232,0.4564733,0.8148816,5.58599,5.841673,-38.30938,993.9543
2.328022003,-0.09076002,-0.1441962,0.2509035,-0.3337306,0.4531777,0.8239813,5.58599,5.841673,-38.30938,993.9543
2.333017826,-0.09068355,-0.2036462,0.3119268,-0.3336348,0.4472317,0.814948,5.58599,5.841673,-38.30938,993.9543
2.335515976,0.2191554,-0.2631416,0.3730291,-0.3327085,0.4501902,0.816837,5.58599,5.841673,-38.30938,993.9543
2.340510845,0.03320931,-0.3225355,0.3116329,-0.3341261,0.4477903,0.8211539,5.58599,5.841673,-38.30938,993.9543
2.345507145,0.03318845,-0.2627923,0.3726374,-0.3316729,0.4467884,0.81495,5.58599,5.841673,-38.30938,993.9561
2.348004818,-0.1527083,-0.2031505,0.1889197,-0.3341904,0.4511358,0.8173088,5.58599,5.841673,-38.30938,993.9561
2.353001118,-0.1526318,-0.1434823,0.2500204,-0.3322961,0.4546007,0.8191936,5.58599,5.841673,-38.30938,993.9561
2.355498791,-0.276508,-0.2029965,0.2499419,-0.336562,0.4472074,0.8178159,5.58599,5.841673,-38.30938,993.9561
2.360494137,-0.1524101,-0.202869,0.1885654,-0.3336066,0.445808,0.8173465,5.58599,5.841673,-38.30938,993.9561
2.362992287,-0.1523622,-0.3814831,0.1885062,-0.3346907,0.4521732,0.8230336,5.58599,5.841673,-38.30938,993.9561
2.367988109,-0.09036283,-0.3217029,0.3719307,-0.3335941,0.4447665,0.8120996,5.585825,5.833177,-38.75585,993.9561
2.370488167,-0.2762207,-0.2024832,0.2494134,-0.3371467,0.4525222,0.816823,5.585825,5.833177,-38.75585,993.9561
2.375481605,-0.02823775,-0.2618592,0.3716379,-0.3312861,0.4526611,0.8177739,5.585825,5.833177,-38.75585,993.9561
2.380477428,-0.02820055,-0.2021728,0.3102043,-0.335151,0.4501249,0.8158835,5.585825,5.833177,-38.75585,993.9561
2.382979870,-0.02819169,-0.2616686,0.1877064,-0.3355511,0.4452807,0.8173514,5.585825,5.833177,-38.75585,993.9578
2.387971401,0.09576967,-0.2019449,0.2486925,-0.3361029,0.4486286,0.8144618,5.585825,5.833177,-38.75585,993.9578
2.390468597,0.1577017,-0.3210001,0.2486144,-0.3365533,0.4467221,0.8178194,5.585825,5.833177,-38.75585,993.9578
2.395464420,0.1575831,-0.2612578,0.3096392,-0.3322527,0.4521742,0.8192109,5.585825,5.833177,-38.75585,993.9578
2.397962570,0.09557155,-0.3802944,0.3707422,-0.3360472,0.4457684,0.8183035,5.585825,5.833177,-38.75585,993.9578
2.402958393,0.1574347,-0.08225894,0.4317094,-0.3328136,0.456001,0.8158402,5.585825,5.833177,-38.75585,993.9578
2.407953739,0.1572968,-0.1417666,0.3702573,-0.3346874,0.4516106,0.8173057,5.585825,5.833177,-38.75585,993.9578
2.410451889,0.4050958,-0.08216272,0.3089407,-0.3313574,0.4565177,0.8158357,5.585825,5.833177,-38.75585,993.9578
2.415447712,0.03310767,-0.2607329,0.1251268,-0.3303607,0.4556068,0.8187077,5.585825,5.833177,-38.75585,993.9578
2.417945862,0.2189835,-0.08197307,0.3086881,-0.3337907,0.4559735,0.8153634,5.579502,6.202061,-38.76227,993.9578
2.422941208,0.2188849,-0.08195899,0.308475,-0.3346486,0.4497274,0.8216181,5.579502,6.202061,-38.76227,993.9578
2.425438881,0.2807782,-0.08193325,0.1859776,-0.33654,0.4456935,0.8135277,5.579502,6.202061,-38.76227,993.9578
2.430435181,-0.02916969,-0.1414224,0.3082612,-0.3322088,0.4497541,0.8197058,5.579502,6.202061,-38.76227,993.9578
2.435431003,0.280698,-0.0221962,0.2468866,-0.3317488,0.4511883,0.817307,5.579502,6.202061,-38.76227,993.9578
2.437929153,0.09472355,0.03737007,0.1244086,-0.3336925,0.4506739,0.8182671,5.579502,6.202061,-38.76227,993.9578
2.442924023,0.2185493,-0.02213787,0.2467501,-0.3331951,0.4502055,0.8187479,5.579502,6.202061,-38.76227,993.9578
2.445422172,0.1565185,0.03742839,0.1854724,-0.3375582,0.4481247,0.8154216,5.579502,6.202061,-38.76227,993.9578
2.450417995,0.2183433,0.03738616,0.3077562,-0.337059,0.4476821,0.8178128,5.579502,6.202061,-38.76227,993.9578
2.452916145,0.4041611,-0.08174418,0.124059,-0.3326729,0.4482619,0.8178061,5.579502,6.202061,-38.76227,993.9578
2.457911491,0.3419061,0.1564508,0.2463237,-0.3346153,0.4477669,0.8201991,5.579502,6.202061,-38.76227,993.9578
2.460409641,0.2178745,0.09684237,0.2462464,-0.3356411,0.4500886,0.8139735,5.579502,6.202061,-38.76227,993.9578
2.465405464,0.5274898,0.09678154,0.3072534,-0.3337902,0.4559799,0.815841,5.579502,6.202061,-38.76227,993.9578
2.470401287,0.2793684,0.03719886,0.245841,-0.3341392,0.4482111,0.8163742,5.218136,5.816754,-39.20155,993.9578
2.472898483,0.4032048,0.1563058,0.3069639,-0.3322728,0.4531061,0.8163382,5.218136,5.816754,-39.20155,993.9578
2.477894783,0.2170847,-0.0224142,0.1843899,-0.3288528,0.4532054,0.8182462,5.218136,5.816754,-39.20155,993.9578
2.480392456,0.1550544,0.1562707,0.3679326,-0.3351844,0.4520854,0.8173026,5.218136,5.816754,-39.20155,993.9578
2.485388756,0.3408043,-0.0224679,0.3677399,-0.3292873,0.4503089,0.8201779,5.218136,5.816754,-39.20155,993.9578
2.487885952,0.216773,0.1562171,0.1228236,-0.3346956,0.4521023,0.8177798,5.218136,5.816754,-39.20155,993.9578
2.492881775,0.1546359,-0.1416215,0.2451276,-0.3318439,0.456533,0.8177466,5.218136,5.816754,-39.20155,993.9578
2.497877598,0.1544998,-0.2010544,0.0002112389,-0.3283267,0.4513198,0.8216031,5.218136,5.816754,-39.20155,993.9578
2.500375748,0.4642617,-0.1414319,0.1838118,-0.331265,0.4511344,0.8125305,5.218136,5.816754,-39.20155,993.9578
2.505371094,0.2781422,-0.1413805,0.1837155,-0.3327655,0.4530312,0.8115625,5.218136,5.816754,-39.20155,993.9578
2.507869244,0.1541306,-0.08177675,0.1224576,-0.329796,0.4512239,0.816828,5.218136,5.816754,-39.20155,993.9578
2.512865066,0.1540143,0.03729966,0.1223807,-0.3303838,0.4564936,0.8124917,5.218136,5.816754,-39.20155,993.9578
2.515363216,0.2778901,0.09684724,-0.1224586,-0.3362053,0.454478,0.8163308,5.218136,5.816754,-39.20155,993.9578
2.520358086,0.09190711,-0.02235091,-1.969934E-05,-0.3351058,0.4477242,0.8178114,5.22324,5.500853,-39.64266,993.9578
2.522856235,0.1538403,-0.0223439,-1.969188E-05,-0.3346947,0.4521152,0.8187351,5.22324,5.500853,-39.64266,993.9578
2.527852058,0.2156279,-0.02236728,-1.967698E-05,-0.3331991,0.4501475,0.8144493,5.22324,5.500853,-39.64266,993.9578
2.532849789,0.2774545,0.03720607,0.1223231,-0.3321325,0.4453607,0.8178264,5.22324,5.500853,-39.64266,993.9578
2.535346031,0.1534432,-0.08192422,0.06108443,-0.3332216,0.451655,0.8182598,5.22324,5.500853,-39.64266,993.9578
2.540341377,0.2772126,-0.08185405,0.122227,-0.3328036,0.455535,0.8172766,5.22324,5.500853,-39.64266,993.9578
2.542839527,0.02927712,-0.1413876,0.1833888,-0.3322892,0.4540896,0.8172866,5.22324,5.500853,-39.64266,993.9578
2.547835350,0.2151061,0.2755601,0.06091167,-0.3332649,0.4540815,0.8182425,5.22324,5.500853,-39.64266,993.9578
2.550333500,0.02915221,0.2754736,-0.1227081,-0.3376259,0.4520329,0.8173044,5.22324,5.500853,-39.64266,993.9578
2.555328846,0.1530581,0.1562381,-0.0002305806,-0.3347417,0.4544901,0.8148969,5.22324,5.500853,-39.64266,993.9578
2.560324669,0.152923,0.03707744,0.1221315,-0.3327386,0.4515882,0.8125281,5.22324,5.500853,-39.64266,993.9578
2.562822819,0.09091286,0.2157437,-0.0003072545,-0.3342173,0.4525788,0.8163431,5.22324,5.500853,-39.64266,993.9578
2.567818642,0.2147799,0.0965644,-0.0003455132,-0.334196,0.4516662,0.8206487,5.579502,6.202061,-38.76227,993.9578
2.570315838,0.09078828,-0.02258454,0.122055,-0.334755,0.4555187,0.8191885,5.579502,6.202061,-38.76227,993.9578
2.575311661,0.1527128,0.1560514,0.1219976,-0.3331902,0.4502764,0.8240017,5.579502,6.202061,-38.76227,993.9578
2.577809811,0.02874063,0.09644309,-0.0004411787,-0.3326945,0.4497823,0.8225719,5.579502,6.202061,-38.76227,993.9578
2.582805633,-0.03320058,0.1559231,0.1218826,-0.3313391,0.45556,0.8167979,5.579502,6.202061,-38.76227,993.9578
2.585303306,0.02877194,0.1558741,-0.0617563,-0.332735,0.4516397,0.816349,5.579502,6.202061,-38.76227,993.9578
2.590299129,-0.03318876,-0.1420203,-0.0617175,-0.3316981,0.4482572,0.8158948,5.579502,6.202061,-38.76227,993.9578
2.595294952,0.02881365,0.2153873,-0.0004977584,-0.3327065,0.4496083,0.8096762,5.579502,6.202061,-38.76227,993.9578
2.597793102,0.1527288,0.09620101,0.1219028,-0.3307328,0.4487248,0.813025,5.579502,6.202061,-38.76227,993.9578
2.602788448,0.02876705,0.096178,-0.1229361,-0.3336976,0.4512107,0.8220846,5.579502,6.202061,-38.76227,993.9578
2.605286121,-0.09516616,0.09614779,-0.1228975,-0.3337025,0.4511398,0.8168308,5.579502,6.202061,-38.76227,993.9578
2.610282421,0.0907799,0.03656551,-0.0616201,-0.3336673,0.4492051,0.8173223,5.579502,6.202061,-38.76227,993.9578
2.612780094,-0.0331728,0.1556726,0.1219999,-0.3327936,0.455069,0.8187129,5.579502,6.202061,-38.76227,993.9578
2.617775440,0.09075275,0.03649365,-0.0004579574,-0.3341895,0.4511487,0.818264,5.953514,5.849597,-38.31014,993.9578
2.622771740,-0.03317004,-0.023126,-0.1228388,-0.3356457,0.4506319,0.8182686,5.953514,5.849597,-38.31014,993.9578
2.625269413,-0.03315963,-0.02311873,-0.06160005,-0.3322843,0.4541605,0.8225404,5.953514,5.849597,-38.31014,993.9561
2.630265236,0.02882329,0.0960144,-0.0003996119,-0.3351797,0.4515421,0.8130075,5.953514,5.849597,-38.31014,993.9561
2.632763386,0.09077632,-0.02313437,-0.06159969,-0.3338131,0.4574809,0.8191739,5.953514,5.849597,-38.31014,993.9561
2.637758732,-0.09510858,0.03643946,-0.1227612,-0.3292626,0.4488336,0.8187554,5.953514,5.849597,-38.31014,993.9561
2.640256882,-0.09507871,0.03642801,-0.06152242,-0.335088,0.44676,0.8182959,5.953514,5.849597,-38.31014,993.9561
2.645252705,-0.1569811,0.2150643,-0.06148378,-0.3371672,0.4534477,0.8134727,5.953514,5.849597,-38.31014,993.9561
2.650248051,0.09094647,-0.08281115,-0.06146438,-0.3318459,0.457115,0.8249074,5.953514,5.849597,-38.31014,993.9561
2.652745724,-0.1569305,-0.08278514,-0.1226453,-0.3308651,0.4565862,0.820134,5.953514,5.849597,-38.31014,993.9561
2.657742023,-0.1568708,-0.08273312,-0.122549,-0.333709,0.4516574,0.8192154,5.953514,5.849597,-38.31014,993.9561
2.660239696,-0.3427078,-0.08270713,-0.1225105,-0.3356484,0.4505932,0.8154029,5.953514,5.849597,-38.31014,993.9561
2.665235996,-0.1566452,0.09598531,-9.081513E-05,-0.3356001,0.4482376,0.820674,5.953184,5.832603,-39.20308,993.9561
2.667733192,-0.09463386,-0.02316345,0.06110942,-0.3296878,0.4454583,0.821168,5.953184,5.832603,-39.20308,993.9561
2.672729015,-0.156517,-0.0231676,-0.0001099482,-0.3366237,0.4505915,0.8168365,5.953184,5.832603,-39.20308,993.9561
2.675227165,-0.09450577,-0.2018382,0.06109029,-0.3336551,0.4487713,0.8211467,5.953184,5.832603,-39.20308,993.9561
2.680222988,0.02947778,-0.1421334,-0.1837297,-0.3331661,0.4481806,0.8125526,5.953184,5.832603,-39.20308,993.9561
2.685219765,-0.03252229,-0.08254096,-1.364201E-05,-0.3341908,0.4511293,0.8168312,5.953184,5.832603,-39.20308,993.9561
2.687721729,-0.2183983,-0.02295573,-1.363456E-05,-0.3341695,0.4502167,0.8211367,5.953184,5.832603,-39.20308,993.9561
2.692712307,-0.09431751,0.03669284,0.1223676,-0.3336718,0.4491406,0.8125461,5.953184,5.832603,-39.20308,993.9561
2.695210457,0.09159839,0.1557999,-0.0612715,-0.3298229,0.4526669,0.8158623,5.953184,5.832603,-39.20308,993.9561
2.700205803,-0.03236386,0.03660215,-0.06121378,-0.3322636,0.4526272,0.8168194,5.953184,5.832603,-39.20308,993.9561
2.702703476,-0.0323537,-0.2016466,-0.1223947,-0.3283102,0.4503363,0.8206547,5.953184,5.832603,-39.20308,993.9561
2.707699299,-0.2801817,-0.141998,-0.1835181,-0.3288303,0.451698,0.8144357,5.953184,5.832603,-39.20308,993.9561
2.712695599,-0.03221576,-0.02279019,-0.06104082,-0.3342659,0.4555421,0.8201434,5.953184,5.832603,-39.20308,993.9561
2.715192795,-0.09416774,-0.02278303,-0.06102164,-0.3336803,0.4502401,0.8220915,5.218301,5.825252,-38.75508,993.9561
2.720188618,-0.03212702,-0.02275,-0.06096408,-0.3307535,0.450258,0.8187461,5.218301,5.825252,-38.75508,993.9561
2.722691536,-0.03211693,-0.08230215,-0.1221451,-0.3318163,0.4544887,0.8101185,5.218301,5.825252,-38.75508,993.9561
2.727682590,0.02984586,-0.2609284,-0.06086819,-0.3356511,0.4505545,0.8125372,5.218301,5.825252,-38.75508,993.9561
2.730180740,0.02983649,-0.02260918,-0.06084906,-0.3327715,0.4535551,0.8144247,5.218301,5.825252,-38.75508,993.9561
2.735176086,0.09172145,-0.08219171,0.0004085898,-0.3321663,0.4473148,0.8187679,5.218301,5.825252,-38.75508,993.9561
2.737673759,-0.2181178,-0.08216588,-0.2443923,-0.3336373,0.4478072,0.8216312,5.218301,5.825252,-38.75508,993.9561
2.742670059,-0.1560577,0.2751854,-0.1218,-0.3341585,0.4497637,0.8235282,5.218301,5.825252,-38.75508,993.9561
2.747665405,-0.09405592,-0.1417716,0.0006385148,-0.3326526,0.4467223,0.8116074,5.218301,5.825252,-38.75508,993.9578
2.750163078,-0.1559885,0.03695085,-0.1217621,-0.3282677,0.447897,0.8197168,5.218301,5.825252,-38.75508,993.9578
2.755159378,0.09188004,-0.02263167,-0.06048539,-0.3356522,0.4511494,0.8206533,5.218301,5.825252,-38.75508,993.9578
2.757657051,0.1538133,-0.02262456,0.0007338077,-0.3302587,0.449751,0.816361,5.218301,5.825252,-38.75508,993.9578
2.762652874,0.09181294,0.03694896,-0.182848,-0.3336809,0.4496195,0.812065,5.218301,5.825252,-38.75508,993.9578
2.765150547,0.09178409,0.09649665,-0.1215904,-0.3301797,0.4453962,0.8173474,5.958618,5.533695,-38.75126,993.9578
2.770146370,0.153708,0.09649216,-0.06033302,-0.3312713,0.452266,0.824464,5.958618,5.533695,-38.75126,993.9578
2.775142193,-0.03219698,0.03692838,-0.1214953,-0.3321554,0.4468617,0.8211594,5.958618,5.533695,-38.75126,993.9578
2.777640343,0.2156615,0.03691678,-0.1214572,-0.3322302,0.4506668,0.8154004,5.958618,5.533695,-38.75126,993.9578
2.782635689,0.2774881,-0.08220631,-0.1214578,-0.3336751,0.4497033,0.818274,5.958618,5.533695,-38.75126,993.9578
2.785133362,-0.09437162,0.03693812,-0.0602194,-0.3312697,0.4516777,0.8168256,5.958618,5.533695,-38.75126,993.9578
2.790129662,0.1535166,0.1560522,0.06223806,-0.3332507,0.4530658,0.8149062,5.958618,5.533695,-38.75126,993.9578
2.792627335,-0.03241792,-0.02267471,0.06221851,-0.3346488,0.4491132,0.8120692,5.958618,5.533695,-38.75126,993.9578
2.797622681,-0.03239757,-0.02267918,-0.1826022,-0.3347174,0.4530085,0.8129967,5.958618,5.533695,-38.75126,993.9578
2.800120830,0.02957469,0.2751244,0.06225602,-0.3346952,0.4521088,0.8182575,5.958618,5.533695,-38.75126,993.9578
2.805116653,-0.03244491,-0.02280747,-0.1213837,-0.3317451,0.4506321,0.8120567,5.958618,5.533695,-38.75126,993.9578
2.810112476,-0.2802145,0.03672874,0.00107374,-0.3341617,0.4497186,0.8201849,5.958618,5.533695,-38.75126,993.9578
2.812610149,-0.03227809,-0.0228421,0.1234738,-0.3336773,0.4496711,0.8158859,5.958618,5.533695,-38.75126,993.9578
2.817605972,0.02974321,0.03671283,0.00103429,-0.3318532,0.4563977,0.8077166,5.953349,5.841101,-38.75661,993.9578
2.820104122,-0.03222822,0.1558199,-0.1213664,-0.3351111,0.4476468,0.81208,5.953349,5.841101,-38.75661,993.9578
2.825099945,-0.03216904,0.03664084,-0.1213094,-0.3356244,0.4497193,0.8225741,5.953349,5.841101,-38.75661,993.9578
2.827598095,0.2156894,0.09618863,0.06232929,-0.3342469,0.4539831,0.8125119,5.953349,5.841101,-38.75661,993.962
2.832593441,-0.1561992,0.1556875,0.00110916,-0.3342294,0.4536267,0.8220677,5.953349,5.841101,-38.75661,993.962
2.837589264,-0.1561205,0.09603038,0.001089238,-0.3337381,0.4530681,0.8158617,5.953349,5.841101,-38.75661,993.962
2.840086937,-0.09410937,0.1555595,0.0622891,-0.3312245,0.4492769,0.8187534,5.953349,5.841101,-38.75661,993.962
2.845083237,-0.2179939,0.0959025,-0.3048936,-0.3356615,0.4510141,0.8106232,5.953349,5.841101,-38.75661,993.962
2.847580433,-0.09400123,0.03631306,0.1236036,-0.3302961,0.4516536,0.8134815,5.953349,5.841101,-38.75661,993.962
2.852576256,-0.1559237,0.03625283,-0.1823981,-0.3356645,0.4515831,0.8168288,5.953349,5.841101,-38.75661,993.962
2.855074406,-0.03195056,-0.02331786,-0.1211406,-0.3347021,0.4526198,0.8201645,5.953349,5.841101,-38.75661,993.962
2.860070229,-0.1558352,0.0362748,-0.121103,-0.3351943,0.4525513,0.8158662,5.953349,5.841101,-38.75661,993.962
2.865065575,-0.279642,0.09573646,-0.1209692,-0.334723,0.4535389,0.8163366,6.320708,5.840528,-39.20384,993.962
2.867563724,-0.15563,-0.08297152,-0.1821314,-0.3356549,0.4511107,0.8177875,6.320708,5.840528,-39.20384,993.9637
2.872559547,-0.09360906,-0.0233788,-0.243198,-0.3341514,0.4486448,0.8125499,6.320708,5.840528,-39.20384,993.9637
2.875061512,-0.2175038,-0.02337146,-0.3043218,-0.3302422,0.4487675,0.8154128,6.320708,5.840528,-39.20384,993.9637
2.880053043,-0.1554246,-0.02335678,-0.242988,-0.3326934,0.4491874,0.8144558,6.320708,5.840528,-39.20384,993.9637
2.882550716,-0.1553757,-0.02334944,-0.3041119,-0.332234,0.4512229,0.8206507,6.320708,5.840528,-39.20384,993.9637
2.887546539,-0.09335496,-0.02335348,-0.1203395,-0.3326803,0.4487666,0.8192354,6.320708,5.840528,-39.20384,993.9637
2.890044689,-0.09332563,-0.08290544,0.06329892,-0.3341752,0.450133,0.8149276,6.320708,5.840528,-39.20384,993.9637
2.895040035,-0.03132436,0.03626525,-0.1203222,-0.3360403,0.4452573,0.8163965,6.320708,5.840528,-39.20384,993.9637
2.900035858,0.09260003,-0.1424354,-0.1202466,-0.3322322,0.4512487,0.8225611,6.320708,5.840528,-39.20384,993.9637
2.902534008,0.03060885,-0.02327209,-0.1814091,-0.3302227,0.4478292,0.8178077,6.320708,5.840528,-39.20384,993.9637
2.907529831,0.03058963,0.2149984,0.002247818,-0.3341764,0.4507278,0.8230436,6.320708,5.840528,-39.20384,993.9655
2.910027981,0.09254211,-0.2019842,-0.1201533,-0.3361497,0.4516177,0.8201725,6.320708,5.840528,-39.20384,993.9655
2.915023327,-0.1553255,-0.02325426,-0.1812588,-0.3302449,0.4487289,0.812547,5.211813,6.185639,-39.20797,993.9655
2.917521000,-0.2172388,-0.2019249,-0.1812018,-0.3347377,0.4545481,0.8191954,5.211813,6.185639,-39.20797,993.9655
2.922517300,-0.1551597,-0.08269811,-0.1810303,-0.3337081,0.4516703,0.8201707,5.211813,6.185639,-39.20797,993.9655
2.927512646,-0.2789474,-0.2612866,-0.1809551,-0.3332289,0.4521596,0.8196892,5.211813,6.185639,-39.20797,993.9655
2.930010319,-0.3408219,-0.142086,-0.2420984,-0.3332458,0.4531367,0.82016,5.211813,6.185639,-39.20797,993.9655
2.935006618,-0.2786652,-0.1420341,-0.2419655,-0.3365191,0.4447744,0.8173556,5.211813,6.185639,-39.20797,993.9655
2.937504292,-0.2166155,-0.1419895,-0.1806893,-0.3326994,0.4497114,0.8173181,5.211813,6.185639,-39.20797,993.9655
2.942499638,-0.1544589,-0.2610002,-0.2417376,-0.3356132,0.4486584,0.8158943,5.211813,6.185639,-39.20797,993.9655
2.944997787,-0.2783346,-0.2609182,0.06433939,-0.3292525,0.4483677,0.8201917,5.211813,6.185639,-39.20797,993.9655
2.949993610,-0.4020644,-0.2608104,-0.1804442,-0.3337364,0.4530939,0.8177722,5.211813,6.185639,-39.20797,993.9637
2.952491760,-0.4639002,-0.2607285,-0.3027879,-0.3336569,0.4487455,0.8192362,5.211813,6.185639,-39.20797,993.9637
2.957487583,-0.4016662,-0.379702,-0.1190163,-0.3355658,0.44629,0.8202102,5.211813,6.185639,-39.20797,993.9637
2.962482929,-0.5253186,-0.3198854,-0.2413419,-0.3327519,0.4526167,0.8168197,5.211813,6.185639,-39.20797,993.9637
2.964980602,-0.4631914,-0.2006663,-0.3636665,-0.3312761,0.4521952,0.8192102,5.953349,5.841101,-38.75661,993.9637
2.969976902,-0.4629589,-0.3196589,-0.3022955,-0.3351245,0.4486754,0.8163716,5.953349,5.841101,-38.75661,993.9637
2.972474575,-0.4008513,-0.3195584,-0.2410003,-0.3341214,0.447247,0.8168588,5.953349,5.841101,-38.75661,993.9637
2.977469921,-0.5865636,-0.2002952,-0.3020299,-0.3341465,0.4487157,0.8178037,5.953349,5.841101,-38.75661,993.9637
2.979968071,-0.2765689,-0.3193509,-0.3631352,-0.3331781,0.4492285,0.8182771,5.953349,5.841101,-38.75661,993.9637
2.984963894,-0.2763368,-0.0213725,-0.3017838,-0.3342307,0.4536074,0.8206348,5.953349,5.841101,-38.75661,993.9637
2.989960194,-0.4000484,-0.3191181,-0.301575,-0.3350967,0.4472453,0.8182924,5.953349,5.841101,-38.75661,993.9637
2.992457390,-0.5238469,-0.2594586,-0.1790798,-0.3351643,0.4511535,0.8201752,5.953349,5.841101,-38.75661,993.9637
2.997453213,-0.4615947,-0.08059899,-0.3625487,-0.3317909,0.4536341,0.8187226,5.953349,5.841101,-38.75661,993.9637
2.999951363,-0.7712601,-0.2592516,-0.05643382,-0.3336664,0.449218,0.8182775,5.953349,5.841101,-38.75661,993.9637
3.004947186,-0.7707366,-0.4972885,-0.3623417,-0.332291,0.4540638,0.8153762,5.953349,5.841101,-38.75661,993.9637
3.007445335,-0.7085325,-0.4971322,-0.4234281,-0.3313175,0.4540397,0.8120321,5.953349,5.841101,-38.75661,993.9637
3.012440681,-1.017878,-0.615976,-0.4843622,-0.3323066,0.4550602,0.8172797,5.953349,5.841101,-38.75661,993.9637
3.017436504,-0.9553351,-0.3178486,-0.4840772,-0.3342086,0.4520935,0.8163466,5.953349,5.841101,-38.75661,993.9637
3.019934177,-0.955035,-0.3773081,-0.6063255,-0.3313062,0.453593,0.8149013,5.953349,5.841101,-38.75661,993.9637
3.024929523,-0.8305303,-0.4961522,-0.6059638,-0.3321746,0.4478065,0.819242,5.953349,5.841101,-38.75661,993.9637
3.027427673,-0.9541936,-0.5555556,-0.5445733,-0.3297751,0.4503048,0.8206558,5.953349,5.841101,-38.75661,993.9637
3.032423496,-0.9535747,-0.495666,-0.6666508,-0.3307253,0.4488344,0.8211445,5.953349,5.841101,-38.75661,993.9655
3.034921646,-1.139161,-0.4359511,-0.6052412,-0.3331417,0.4473131,0.8202015,5.953349,5.841101,-38.75661,993.9655
3.039917469,-1.138426,-0.4952926,-0.3600793,-0.335167,0.4511148,0.8173095,5.953349,5.841101,-38.75661,993.9655
3.042414665,-0.9521823,-0.495137,-0.604767,-0.3375743,0.4491146,0.8168476,5.953349,5.841101,-38.75661,993.9655
3.047410965,-0.765659,-0.4353415,-0.5431869,-0.3336756,0.4496968,0.8177964,5.953349,5.841101,-38.75661,993.9655
3.052406788,-0.8891022,-0.5541492,-0.2980833,-0.3351431,0.4496267,0.8149319,5.953349,5.841101,-38.75661,993.9655
3.054904938,-0.8888228,-0.4944158,-0.4203901,-0.3376208,0.451496,0.8134869,5.953349,5.841101,-38.75661,993.9655
3.059900284,-0.8263218,-0.4941239,-0.4201452,-0.3336556,0.4487649,0.8206691,5.953349,5.841101,-38.75661,993.9655
3.062397957,-1.011948,-0.3748501,-0.358813,-0.3297898,0.4513141,0.8235146,5.953349,5.841101,-38.75661,993.9655
3.067394257,-0.8874275,-0.4341365,-0.2973874,-0.3340715,0.4443029,0.8144915,5.579667,6.210558,-38.3158,993.9655
3.069891930,-0.8251867,-0.3148814,-0.4196944,-0.333163,0.4482257,0.8158959,5.579667,6.210558,-38.3158,993.9637
3.074887276,-0.8866303,-0.3741681,-0.4806117,-0.3317028,0.4488005,0.82019,5.579667,6.210558,-38.3158,993.9637
3.079883099,-0.8241502,-0.2547957,-0.2966707,-0.3297773,0.4502726,0.8182677,5.579667,6.210558,-38.3158,993.9637
3.082381248,-0.7619292,-0.3738343,-0.4801781,-0.3298584,0.4552094,0.8244422,5.579667,6.210558,-38.3158,993.9637
3.087377071,-0.8234321,-0.6117992,-0.5410767,-0.3321768,0.4477743,0.8168539,5.579667,6.210558,-38.3158,993.9637
3.089874744,-0.575325,-0.3138105,-0.4797065,-0.3287161,0.4454084,0.8159134,5.579667,6.210558,-38.3158,993.9637
3.094870567,-0.9466388,-0.3731166,-0.5405669,-0.3371171,0.4511179,0.8206543,5.579667,6.210558,-38.3158,993.9637
3.097368240,-0.5745689,-0.31344,-0.4179966,-0.3301659,0.4443741,0.8135334,5.579667,6.210558,-38.3158,993.9637
3.102364540,-0.7600358,-0.3727837,-0.6625156,-0.334179,0.4506892,0.820178,5.579667,6.210558,-38.3158,993.9637
3.104862213,-0.6358728,-0.4322259,-0.6623075,-0.3313721,0.457527,0.8186946,5.579667,6.210558,-38.3158,993.9637
3.109858513,-0.8213402,-0.1936984,-0.47831,-0.331735,0.4501662,0.813493,5.579667,6.210558,-38.3158,993.9637
3.114853859,-0.8827474,-0.4317578,-0.4779903,-0.3370365,0.4461747,0.8140022,5.573179,6.570948,-38.76869,993.9637
3.117351532,-0.8205079,-0.5507408,-0.4166399,-0.33363,0.4473026,0.8202018,5.573179,6.570948,-38.76869,993.9637
3.122346878,-1.067802,-0.5503573,-0.7223023,-0.332745,0.4521057,0.8149127,5.573179,6.570948,-38.76869,993.9637
3.124845028,-1.005504,-0.5501845,-0.5384748,-0.32976,0.449302,0.8182746,5.573179,6.570948,-38.76869,993.9637
3.129840851,-0.8190253,-0.3116578,-0.7216986,-0.3331799,0.4492027,0.8163666,5.573179,6.570948,-38.76869,993.9637
3.132339001,-0.8807301,-0.2520006,-0.7214719,-0.33412,0.4472663,0.8182917,5.573179,6.570948,-38.76869,993.9637
3.137334824,-0.8801963,-0.5495452,-0.5986567,-0.3317453,0.4512399,0.821128,5.573179,6.570948,-38.76869,993.9637
3.142330170,-0.6318534,-0.5492748,-0.41468,-0.3366237,0.4505915,0.8168365,5.573179,6.570948,-38.76869,993.9637
3.144828320,-0.8175412,-0.489543,-0.47575,-0.3310949,0.4425988,0.8273988,5.573179,6.570948,-38.76869,993.9637
3.149824142,-0.755046,-0.667932,-0.5366513,-0.3381129,0.4520417,0.8187377,5.573179,6.570948,-38.76869,993.9637
3.152321816,-0.878733,-0.5486035,-0.5364827,-0.3336782,0.4496582,0.8149307,5.573179,6.570948,-38.76869,993.9637
3.157317162,-0.7542567,-0.3100217,-0.5973266,-0.3311655,0.4458541,0.8168671,5.573179,6.570948,-38.76869,993.9637
3.159815311,-0.8159819,-0.3694836,-0.7195394,-0.3316812,0.4472802,0.8154242,5.573179,6.570948,-38.76869,993.9637
3.164811134,-0.9393545,-0.3691954,-0.5967254,-0.3321468,0.4463764,0.8211629,5.590929,5.517274,-39.19696,993.9637
3.169807434,-0.9387644,-0.5476226,-0.5351695,-0.3313104,0.4541428,0.819674,5.590929,5.517274,-39.19696,993.9637
3.172304630,-0.9384695,-0.428332,-0.4738012,-0.329385,0.455615,0.8177517,5.590929,5.517274,-39.19696,993.9637
3.177300453,-0.8759762,-0.4876222,-0.4123034,-0.3302205,0.4478614,0.8201959,5.590929,5.517274,-39.19696,993.9637
3.179798603,-0.9376631,-0.4279097,-0.4121739,-0.3312127,0.4488367,0.8221001,5.590929,5.517274,-39.19696,993.9637
3.184794426,-0.8751119,-0.6658407,-0.6566965,-0.3312418,0.4502475,0.8187464,5.590929,5.517274,-39.19696,993.9637
3.187292576,-0.9367991,-0.6060722,-0.5340898,-0.3332814,0.455065,0.8191909,5.590929,5.517274,-39.19696,993.9637
3.192287922,-1.18402,-0.6056166,-0.6561162,-0.3326755,0.4482233,0.8149404,5.590929,5.517274,-39.19696,993.962
3.194785595,-0.9977618,-0.4267485,-0.5335097,-0.3336048,0.4458338,0.8192569,5.590929,5.517274,-39.19696,993.962
3.199781895,-1.059097,-0.5455428,-0.4107549,-0.3311439,0.4443337,0.8121012,5.590929,5.517274,-39.19696,993.962
3.204776764,-1.120394,-0.5452375,-0.4717163,-0.3336293,0.4479232,0.8302283,5.590929,5.517274,-39.19696,993.962
3.207274914,-1.243966,-0.6046255,-0.4103679,-0.3341009,0.4463215,0.8202091,5.590929,5.517274,-39.19696,993.962
3.212270737,-0.9334714,-0.4851458,-0.4101293,-0.3321107,0.4444545,0.8226095,5.590929,5.517274,-39.19696,993.962
3.214770317,-0.9331781,-0.1871969,-0.3488003,-0.3331325,0.4468342,0.8206825,5.946861,6.201488,-39.2095,993.962
3.219764710,-0.9945346,-0.5443415,-0.4097621,-0.3351027,0.4477693,0.8211547,5.946861,6.201488,-39.2095,993.962
3.222262383,-0.8702979,-0.4846112,-0.4708336,-0.3350406,0.4443915,0.8226117,5.946861,6.201488,-39.2095,993.962
3.227258205,-0.8697706,-0.3056663,-0.2257755,-0.3311619,0.4459056,0.820688,5.946861,6.201488,-39.2095,993.962
3.232254028,-0.8073011,-0.4841709,-0.4091958,-0.3345549,0.4443633,0.8197457,5.946861,6.201488,-39.2095,993.962
3.234752178,-0.8690096,-0.5435781,-0.347867,-0.3333077,0.4571286,0.8282518,5.946861,6.201488,-39.2095,993.962
3.239747524,-0.6825969,-0.3050181,-0.2252288,-0.3316711,0.4468142,0.8168605,5.946861,6.201488,-39.2095,993.962
3.242245197,-0.8682687,-0.3049223,-0.2251581,-0.3370672,0.4481739,0.818287,5.946861,6.201488,-39.2095,993.962
3.247241497,-0.8676842,-0.2452276,-0.4697598,-0.333748,0.4541483,0.8239744,5.946861,6.201488,-39.2095,993.962
3.249739170,-0.8674117,-0.2451505,-0.4696122,-0.3370706,0.4487365,0.824015,5.946861,6.201488,-39.2095,993.962
3.254734516,-0.8668667,-0.06633732,-0.408117,-0.3326529,0.44733,0.8206787,5.946861,6.201488,-39.2095,993.962
3.257232666,-0.8665944,-0.3045537,-0.4079887,-0.3317578,0.4522813,0.8263748,5.946861,6.201488,-39.2095,993.962
3.262228489,-0.86605,-0.1852625,-0.468875,-0.3302647,0.450275,0.8192233,5.946861,6.201488,-39.2095,993.962
3.267224312,-0.8035244,-0.1851461,-0.4685419,-0.3293233,0.4522308,0.8187312,5.58566,5.824679,-39.20231,993.962
3.269721985,-1.05112,-0.2446472,-0.529595,-0.3292361,0.4473842,0.8192433,5.58566,5.824679,-39.20231,993.962
3.274717808,-0.8645931,-0.3040341,-0.4680429,-0.3356137,0.448652,0.8154168,5.58566,5.824679,-39.20231,993.962
3.277215957,-0.9882457,-0.6612944,-0.5902962,-0.3322093,0.4497477,0.8192282,5.58566,5.824679,-39.20231,993.962
3.282211780,-0.8637786,-0.3631386,-0.2839628,-0.3326181,0.4453888,0.8206925,5.58566,5.824679,-39.20231,993.962
3.284709453,-0.9874314,-0.1247873,-0.2226734,-0.3327097,0.4507851,0.824953,5.58566,5.824679,-39.20231,993.962
3.289704799,-0.8629063,-0.1842121,-0.4672766,-0.3301813,0.4459846,0.8249858,5.58566,5.824679,-39.20231,993.962
3.294701576,-0.8004411,-0.06501517,-0.4057829,-0.3360056,0.4433161,0.8164103,5.58566,5.824679,-39.20231,993.962
3.297198772,-0.9241138,-0.005435448,-0.3444552,-0.3359729,0.4419569,0.823585,5.58566,5.824679,-39.20231,993.962
3.302194118,-0.6137618,-0.1245506,-0.4054582,-0.3331134,0.4458894,0.8225999,5.58566,5.824679,-39.20231,993.962
3.304692268,-0.6135689,-0.1245115,-0.4053309,-0.3268096,0.4484395,0.8216227,5.58566,5.824679,-39.20231,993.962
3.309688091,-0.613164,-0.2435706,-0.2214949,-0.3360246,0.4448751,0.8240419,5.58566,5.824679,-39.20231,993.962
3.312186241,-0.5510093,-0.1839348,-0.4050259,-0.3326311,0.4464239,0.8254617,5.58566,5.824679,-39.20231,993.962
3.317182064,-0.4268168,-0.2433598,-0.1600283,-0.3360728,0.4472307,0.8187708,5.58566,5.824679,-39.20231,993.962
3.319680691,-0.5506069,-0.1241648,-0.2823784,-0.3326433,0.4468576,0.8216374,5.58566,5.824679,-39.20231,993.962
3.324675560,-0.4262979,-0.1240868,0.0238192,-0.3321403,0.4458589,0.8187783,5.58566,5.824679,-39.20231,993.962
3.329671383,-0.3021059,-0.2431087,-0.09857693,-0.3336424,0.448344,0.8254486,5.58566,5.824679,-39.20231,993.962
3.332169056,-0.1780868,-0.183473,-0.1597462,-0.3355819,0.4472799,0.8216361,5.58566,5.824679,-39.20231,993.962
3.337164402,-0.4877075,-0.1238359,-0.3432464,-0.3325847,0.4434283,0.8192735,5.58566,5.824679,-39.20231,993.962
3.339662552,-0.5495164,-0.1833563,-0.3431386,-0.3346048,0.4473073,0.822113,5.58566,5.824679,-39.20231,993.962
3.344658375,-0.487248,0.05499611,-0.2818189,-0.3312761,0.4521952,0.8192102,5.58566,5.824679,-39.20231,993.962
3.347156525,-0.549057,-0.06413977,-0.4041308,-0.3356219,0.4491437,0.8158908,5.58566,5.824679,-39.20231,993.962
3.352151871,-0.6106547,-0.1236213,-0.159153,-0.3301948,0.446399,0.8197286,5.58566,5.824679,-39.20231,993.962
3.357147693,-0.7341758,-0.3021467,-0.1590338,-0.3336043,0.4458402,0.8197345,5.58566,5.824679,-39.20231,993.9602
3.359645843,-0.9198314,-0.2424925,-0.2201841,-0.3312592,0.4512181,0.8187395,5.58566,5.824679,-39.20231,993.9602
3.364641666,-0.4856163,-0.3018621,-0.2200265,-0.3325917,0.4439394,0.8211805,5.211813,6.185639,-39.20797,993.9602
3.367138862,-0.6713499,-0.06353003,-0.2811576,-0.3331764,0.4492543,0.8201876,5.211813,6.185639,-39.20797,993.9602
3.372135162,-0.7328902,-0.1826087,-0.4033621,-0.3291196,0.4411269,0.8231092,5.211813,6.185639,-39.20797,993.9602
3.374632835,-0.6706979,-0.30167,-0.4032354,-0.3349468,0.4390275,0.8207393,5.211813,6.185639,-39.20797,993.9602
3.379629135,-0.608334,-0.2419398,-0.3417819,-0.3292165,0.4464458,0.8216383,5.211813,6.185639,-39.20797,993.9602
3.384624004,-0.6698945,-0.003550649,-0.2192052,-0.3321958,0.4493333,0.8244855,5.211813,6.185639,-39.20797,993.9602
3.387122154,-0.4837978,-0.1822274,-0.1579362,-0.3316349,0.4455065,0.8278561,5.211813,6.185639,-39.20797,993.9602
3.392117977,-0.483416,-0.1820568,-0.1578177,-0.3287386,0.4469159,0.819724,5.211813,6.185639,-39.20797,993.9602
3.394616127,-0.421302,-0.003321726,-0.4025689,-0.3330944,0.4443304,0.8149684,5.211813,6.185639,-39.20797,993.9602
3.399611473,-0.8546746,-0.4201599,-0.3411543,-0.3360624,0.4467712,0.8206847,5.211813,6.185639,-39.20797,993.9602
3.402109623,-0.7304819,-0.24135,-0.4634475,-0.3326975,0.4503513,0.8287774,5.211813,6.185639,-39.20797,993.9602
3.407105446,-0.7300425,-0.06248306,-0.4019562,-0.3332082,0.4506264,0.8139682,5.211813,6.185639,-39.20797,993.9602
3.409603119,-0.8537374,-0.1220227,-0.5242303,-0.3302347,0.4488771,0.8235322,5.211813,6.185639,-39.20797,993.9602
3.414599419,-1.039107,-0.3601272,-0.523901,-0.3336413,0.4477492,0.8173326,5.20582,6.57152,-38.32146,993.9602
3.419594765,-0.6666814,-0.1217385,-0.4624101,-0.3340866,0.4453058,0.8168727,5.20582,6.57152,-38.32146,993.9602
3.422092438,-0.728434,-0.2408189,-0.4622648,-0.3341664,0.4502618,0.82448,5.20582,6.57152,-38.32146,993.9602
3.427088737,-0.727918,-0.2406676,-0.5843556,-0.3346449,0.4491712,0.8163677,5.20582,6.57152,-38.32146,993.9602
3.429586410,-0.7896515,-0.3597106,-0.6453722,-0.3306723,0.4459355,0.8221205,5.20582,6.57152,-38.32146,993.9602
3.434581756,-0.9130406,-0.1808442,-0.4613854,-0.3335901,0.4448245,0.8163981,5.20582,6.57152,-38.32146,993.9602
3.437079906,-0.8507917,-0.2999059,-0.5224406,-0.3306809,0.4464208,0.822117,5.20582,6.57152,-38.32146,993.9602
3.442075729,-0.8502766,-0.2401582,-0.460893,-0.3364412,0.4410144,0.826458,5.20582,6.57152,-38.32146,993.9602
3.447071552,-0.8497815,-0.3590885,-0.399384,-0.3321724,0.4478387,0.8216301,5.20582,6.57152,-38.32146,993.9602
3.449572563,-0.9734387,-0.1802978,-0.4604588,-0.3307217,0.4488859,0.8249654,5.20582,6.57152,-38.32146,993.9602
3.454565048,-0.9728466,-0.2397439,-0.4601695,-0.3394536,0.4452547,0.8216528,5.20582,6.57152,-38.32146,993.9602
3.457063198,-0.9105788,-0.2396685,-0.3988247,-0.3286665,0.4430722,0.8226174,5.20582,6.57152,-38.32146,993.9602
3.462059021,-0.8480448,-0.1799961,-0.3985357,-0.3326399,0.446295,0.8159094,5.20582,6.57152,-38.32146,993.9602
3.464556694,-0.9717025,-0.1799395,-0.1536097,-0.3320969,0.4434324,0.8187956,5.953349,5.841101,-38.75661,993.9602
3.469552040,-0.7852447,-0.1797891,-0.5206375,-0.3297317,0.4478784,0.8206731,5.953349,5.841101,-38.75661,993.9602
3.472050190,-0.7230359,-0.2988512,-0.520474,-0.3316017,0.4429318,0.8168882,5.953349,5.841101,-38.75661,993.9602
3.477046013,-0.7845049,-0.2986448,-0.6425282,-0.3296271,0.4420612,0.8211922,5.953349,5.841101,-38.75661,993.9584
3.482041359,-0.8459741,-0.1793572,-0.5809435,-0.3326477,0.4467932,0.8168612,5.953349,5.841101,-38.75661,993.9584
3.484539509,-0.7217841,-0.1197416,-0.4583606,-0.330151,0.443979,0.8202235,5.953349,5.841101,-38.75661,993.9584
3.489535332,-1.155007,-0.4174442,-0.6416348,-0.3306084,0.4425835,0.825488,5.953349,5.841101,-38.75661,993.9584
3.492033481,-0.7828715,-0.417313,-0.580233,-0.3340219,0.4419667,0.8211955,5.953349,5.841101,-38.75661,993.9584
3.497029304,-0.9682854,-0.3575477,-0.6410687,-0.3306849,0.4463628,0.8178185,5.953349,5.841101,-38.75661,993.9584
3.499526501,-0.8440571,-0.1787575,-0.5796672,-0.3292191,0.4464072,0.8187727,5.953349,5.841101,-38.75661,993.9584
3.504522800,-0.9055084,-0.2382044,-0.7017226,-0.3310686,0.4405351,0.8183379,5.953349,5.841101,-38.75661,993.9584
3.509518623,-0.842958,-0.2976328,-0.4565194,-0.3345515,0.4438007,0.8140177,5.953349,5.841101,-38.75661,993.9584
3.512016773,-0.9666173,-0.1784207,-0.3951758,-0.3358932,0.4370008,0.8159776,5.953349,5.841101,-38.75661,993.9584
3.517011642,-0.9041258,-0.2973898,-0.2725271,-0.332544,0.4409631,0.816425,5.573014,6.562451,-39.21516,993.9584
3.519509792,-0.8418797,-0.1781778,-0.3948419,-0.3340632,0.4438112,0.8140174,5.573014,6.562451,-39.21516,993.9584
3.524505615,-0.8413898,-0.2972967,-0.4557748,-0.3300537,0.4386665,0.822172,5.573014,6.562451,-39.21516,993.9584
3.527003765,-0.7172012,-0.3567626,-0.3944315,-0.3341234,0.4478289,0.8240197,5.573014,6.562451,-39.21516,993.9584
3.531999111,-0.902598,-0.2969605,-0.4554031,-0.3316224,0.444465,0.8226092,5.573014,6.562451,-39.21516,993.9584
3.536994934,-0.9639931,-0.1777115,-0.3939553,-0.3330918,0.4443691,0.8178341,5.573014,6.562451,-39.21516,993.9584
3.539493084,-0.9017282,-0.5945708,-0.5774321,-0.3341118,0.4467746,0.8178175,5.573014,6.562451,-39.21516,993.9584
3.544488907,-0.9012201,-0.2964942,-0.2711068,-0.3307579,0.4501936,0.8139699,5.573014,6.562451,-39.21516,993.9584
3.546986103,-1.024861,-0.1177232,-0.6382228,-0.3331737,0.4492929,0.8230533,5.573014,6.562451,-39.21516,993.9584
3.551982403,-1.024217,-0.4154271,-0.5766409,-0.3273175,0.4493674,0.819228,5.573014,6.562451,-39.21516,993.9584
3.554480076,-0.8380092,-0.1770593,-0.7600604,-0.3288185,0.4512578,0.8177825,5.573014,6.562451,-39.21516,993.9584
3.559476375,-1.085292,-0.1173888,-0.8208023,-0.3306662,0.4454115,0.8192582,5.573014,6.562451,-39.21516,993.9584
3.561974049,-1.146913,-0.05779262,-0.698144,-0.3296691,0.444507,0.8226078,5.573014,6.562451,-39.21516,993.9584
3.566969395,-1.08425,-0.05775631,-0.6977054,-0.335035,0.4438611,0.8192719,5.573179,6.570948,-38.76869,993.9584
3.571965217,-1.021568,0.06139857,-0.8196483,-0.3286943,0.4445023,0.8206966,5.573179,6.570948,-38.76869,993.9584
3.574463367,-0.8353609,0.1804979,-0.6969904,-0.3311341,0.4444755,0.8226088,5.573179,6.570948,-38.76869,993.9584
3.579458713,-1.082665,0.0612846,-0.8189529,-0.3320335,0.4400739,0.8216854,5.573179,6.570948,-38.76869,993.9584
3.581956863,-1.020363,0.1208246,-0.7574955,-0.3310451,0.4396548,0.8250315,5.573179,6.570948,-38.76869,993.9584
3.586952686,-0.833816,0.001630146,-0.4510378,-0.3369357,0.4409137,0.8197716,5.573179,6.570948,-38.76869,993.9584
3.589450836,-0.8955161,0.1207482,-0.6344967,-0.3360076,0.4438981,0.8235711,5.573179,6.570948,-38.76869,993.9584
3.594446659,-0.8329915,0.1206162,-0.6341174,-0.3320065,0.438631,0.822651,5.573179,6.570948,-38.76869,993.9584
3.599442005,-1.018354,0.2397152,-0.5113186,-0.3325543,0.4420368,0.8240601,5.573179,6.570948,-38.76869,993.9602
3.601939678,-0.9560724,0.2991992,-0.3887575,-0.3345353,0.4434249,0.8221407,5.573179,6.570948,-38.76869,993.9602
3.606935978,-0.7076818,0.06084888,-0.4497327,-0.3315808,0.4420128,0.820716,5.573179,6.570948,-38.76869,993.9602
3.609433651,-0.7694216,0.001270462,-0.6331921,-0.3345037,0.4414386,0.8188112,5.573179,6.570948,-38.76869,993.9602
3.614428997,-0.892804,0.001288377,-0.3880512,-0.3282056,0.4445192,0.8211738,5.211648,6.177143,-39.65443,993.9602
3.616927147,-0.6446751,0.1204066,-0.5103297,-0.3326157,0.4448133,0.8140093,5.211648,6.177143,-39.65443,993.9602
3.621922970,-0.7681749,-0.05830955,-0.5712093,-0.3305772,0.4405907,0.8216809,5.211648,6.177143,-39.65443,993.9602
3.624421120,-0.7679335,0.00126807,-0.6934302,-0.3335104,0.4410903,0.8274111,5.211648,6.177143,-39.65443,993.9602
3.629416466,-0.8294132,0.179889,-0.5706134,-0.3340219,0.4419667,0.8211955,5.211648,6.177143,-39.65443,993.9602
3.634412289,-0.9527774,0.1202729,-0.7538748,-0.3314969,0.4377288,0.8269562,5.211648,6.177143,-39.65443,993.9602
3.636910915,-0.8285539,0.06067578,-0.6312375,-0.3291101,0.4406545,0.824068,5.211648,6.177143,-39.65443,993.962
3.641906261,-0.9519576,-0.1180589,-0.5696408,-0.3320642,0.4420731,0.8259702,5.211648,6.177143,-39.65443,993.962
3.644403458,-1.261469,-0.1180219,-0.5694618,-0.3325638,0.4425093,0.8231013,5.211648,6.177143,-39.65443,993.962
3.649399280,-0.8270197,-0.1179664,-0.5079039,-0.3374438,0.4424493,0.8264483,5.211648,6.177143,-39.65443,993.962
3.651897430,-0.9506841,-0.1179294,-0.5689445,-0.3369673,0.4429,0.8231012,5.211648,6.177143,-39.65443,993.962
3.656893253,-0.8881247,-0.1774146,-0.5074253,-0.3330575,0.4424214,0.8173703,5.211648,6.177143,-39.65443,993.962
3.661888599,-1.011491,0.001356062,-0.5071258,-0.3256832,0.4402427,0.8240688,5.211648,6.177143,-39.65443,993.962
3.664386749,-0.8252869,-0.05820366,-0.4457663,-0.3326099,0.4448971,0.8202184,5.217971,5.808258,-39.64801,993.962
3.669382572,-1.010674,0.001336068,-0.384286,-0.3301597,0.4444643,0.8202201,5.217971,5.808258,-39.64801,993.962
3.671880722,-0.8864325,0.001335647,-0.5677659,-0.3354964,0.4424076,0.8202379,5.217971,5.808258,-39.64801,993.962
3.676876068,-0.823933,0.001334805,-0.3226469,-0.3335273,0.4420674,0.8278818,5.217971,5.808258,-39.64801,993.962
3.679373741,-0.8236741,0.06089368,-0.3837457,-0.3354732,0.4415207,0.8264538,5.217971,5.808258,-39.64801,993.962
3.684370041,-0.699252,0.1799927,-0.3835046,-0.3286434,0.4421853,0.8288333,5.217971,5.808258,-39.64801,993.962
3.686867714,-0.8849186,0.1203769,-0.4445843,-0.3320789,0.4430824,0.8288289,5.217971,5.808258,-39.64801,993.962
3.691864014,-0.6984959,-0.2369797,-0.3831433,-0.3301479,0.4440241,0.8235668,5.217971,5.808258,-39.64801,993.962
3.696858883,-0.8220007,0.06085343,-0.5052838,-0.3316714,0.4474219,0.8259318,5.217971,5.808258,-39.64801,993.962
3.699357033,-0.8837045,-0.1178436,-0.4439248,-0.3335521,0.4435426,0.8293042,5.217971,5.808258,-39.64801,993.962
3.704352856,-0.8831688,-0.05824769,-0.443646,-0.3349746,0.4404576,0.8188185,5.217971,5.808258,-39.64801,993.962
3.706851005,-1.006816,-0.2369073,-0.4435066,-0.3300962,0.4411059,0.8231099,5.217971,5.808258,-39.64801,993.962
3.711846352,-0.8203357,0.001403902,-0.5044474,-0.3285975,0.4391833,0.8221675,4.838132,6.555099,-38.76717,993.962
3.714344501,-0.8820401,-0.1177151,-0.4430887,-0.3378818,0.4395013,0.824559,4.838132,6.555099,-38.76717,993.962
3.719340801,-0.8195239,-0.05802575,-0.136867,-0.3286521,0.4426706,0.8288299,4.838132,6.555099,-38.76717,993.9602
3.724336147,-0.6951044,-0.1175673,-0.3203239,-0.332984,0.4385971,0.8216965,4.838132,6.555099,-38.76717,993.9602
3.726833343,-1.004696,-0.1770897,-0.2590231,-0.3305293,0.4382287,0.8264744,4.838132,6.555099,-38.76717,993.9602
3.731829643,-0.8182569,-0.05785983,-0.1976602,-0.3364998,0.4444437,0.8288218,4.838132,6.555099,-38.76717,993.9602
3.734327316,-0.941924,0.1803955,-0.2587983,-0.3354303,0.4390878,0.8259935,4.838132,6.555099,-38.76717,993.9602
3.739323616,-0.7554849,-0.3555831,-0.2586165,-0.3320208,0.4396467,0.8259875,4.838132,6.555099,-38.76717,993.9602
3.741820812,-0.6932855,0.1805623,-0.1361348,-0.3339397,0.437657,0.8255251,4.838132,6.555099,-38.76717,993.9602
3.746816635,-0.6308879,-0.1172728,-0.1971918,-0.3324852,0.438148,0.8236101,4.838132,6.555099,-38.76717,993.9602
3.749314785,-0.5067655,-0.1767952,0.04767091,-0.33456,0.4449002,0.8235632,4.838132,6.555099,-38.76717,993.9602
3.754310608,-0.5064471,-0.05756555,-0.01355924,-0.3300798,0.4401224,0.8221616,4.838132,6.555099,-38.76717,993.9602
3.759305954,-0.3201843,0.1211111,-0.2582938,-0.3368458,0.4361058,0.8231496,4.838132,6.555099,-38.76717,993.9584
3.761804104,-0.3200837,0.1806324,-0.0746121,-0.3280845,0.4377186,0.8207446,5.211813,6.185639,-39.20797,993.9584
3.766799927,-0.2579206,0.1209596,-0.07454599,-0.3315547,0.4405569,0.8207264,5.211813,6.185639,-39.20797,993.9584
3.769298077,-0.1958774,0.1804809,0.04787783,-0.3309605,0.4347696,0.822678,5.211813,6.185639,-39.20797,993.9584
3.774292946,-0.2577359,0.1803675,0.1090095,-0.3302109,0.447389,0.8211545,5.211813,6.185639,-39.20797,993.9584
3.776791096,-0.5055033,0.1803108,-0.01342515,-0.3291352,0.4421233,0.8250127,5.211813,6.185639,-39.20797,993.9584
3.781786919,-0.3192995,0.1207131,0.04776426,-0.3315647,0.4410228,0.81929,5.211813,6.185639,-39.20797,993.9584
3.786783218,-0.4430231,-0.05800321,-0.01344673,-0.3344924,0.440992,0.8216804,5.211813,6.185639,-39.20797,993.9584
3.789280891,-0.1950355,0.1206929,0.0477577,-0.337367,0.4380623,0.8250465,5.211813,6.185639,-39.20797,993.9584
3.794276237,-0.009007283,0.0610765,0.1088894,-0.3305745,0.4406294,0.8245466,5.211813,6.185639,-39.20797,993.9584
3.796774387,-0.1329286,0.1801759,0.1088552,-0.330638,0.4439878,0.8216567,5.211813,6.185639,-39.20797,993.9584
3.801770210,-0.008882008,0.1205034,-0.01361355,-0.3339963,0.4405043,0.8207282,5.211813,6.185639,-39.20797,993.9584
3.804268360,-0.1328034,0.1800249,0.1087911,-0.3324371,0.4351783,0.8193322,5.211813,6.185639,-39.20797,993.9584
3.809263706,-0.008776315,0.06083059,0.1086459,-0.3291847,0.4450737,0.8278578,5.211813,6.185639,-39.20797,993.9584
3.814259529,-0.07069396,0.001214359,0.1697778,-0.3301374,0.4435646,0.8254807,5.205655,6.563023,-38.76793,993.9584
3.816757679,-0.07067175,0.1203326,0.1697245,-0.3261733,0.4402064,0.8221587,5.205655,6.563023,-38.76793,993.9584
3.821753502,-0.008684732,0.06067897,0.1696371,-0.3319066,0.4333571,0.8274652,5.205655,6.563023,-38.76793,993.9584
3.824250698,0.1152422,0.1797785,0.230784,-0.332854,0.4319253,0.8308197,5.205655,6.563023,-38.76793,993.9584
3.829246521,-0.008773863,0.1201437,0.169458,-0.3310295,0.4386584,0.8231279,5.205655,6.563023,-38.76793,993.9584
3.831744671,0.05319099,0.1796653,0.230605,-0.339335,0.4390296,0.8279068,5.205655,6.563023,-38.76793,993.9584
3.836740494,0.1770623,0.179515,0.2304601,-0.33356,0.4434266,0.8207071,5.205655,6.563023,-38.76793,993.9584
3.839238644,0.2389688,0.1198993,0.1691875,-0.3300341,0.4377281,0.824567,5.205655,6.563023,-38.76793,993.9584
3.844233990,0.05295183,0.2389051,0.2914624,-0.3344124,0.4366501,0.8236219,5.205655,6.563023,-38.76793,993.9584
3.849229813,0.05291856,0.11973,0.2912601,-0.3354781,0.4414499,0.8212,5.205655,6.563023,-38.76793,993.9584
3.851727962,0.2387882,0.2983703,0.2299684,-0.3355324,0.4443294,0.8187912,5.205655,6.563023,-38.76793,993.9584
3.856723309,0.1766761,0.2982951,0.1686045,-0.3320321,0.4400933,0.8231183,5.205655,6.563023,-38.76793,993.9584
3.859220982,0.3625069,0.1790828,0.2909519,-0.3330236,0.4404674,0.8164288,5.205655,6.563023,-38.76793,993.9584
3.864217281,0.1764513,0.4172075,0.1684264,-0.3369117,0.4400398,0.8269429,5.573014,6.562451,-39.21516,993.9584
3.866714954,0.2383579,0.1788392,0.1683735,-0.3334636,0.4381012,0.8217004,5.573014,6.562451,-39.21516,993.9584
3.871711254,0.114284,0.05964568,0.413107,-0.3359312,0.4395046,0.8216918,5.573014,6.562451,-39.21516,993.9584
3.876706123,0.3619827,0.1787081,0.2904855,-0.3315926,0.4424529,0.8173692,5.573014,6.562451,-39.21516,993.9584
3.879204273,0.361869,0.05953335,0.229194,-0.3296727,0.4444555,0.8187869,5.573014,6.562451,-39.21516,993.9644
3.884200096,0.4235843,0.357255,0.2902503,-0.3334975,0.4400553,0.8226418,5.573014,6.562451,-39.21516,993.9644
3.886698246,0.3614891,0.1189056,0.2901591,-0.3345532,0.4443891,0.8216562,5.573014,6.562451,-39.21516,993.9644
3.891693592,0.5471678,0.1188122,0.412358,-0.3315868,0.4425367,0.8235782,5.573014,6.562451,-39.21516,993.9644
3.894191742,0.5469959,0.1783342,0.2286278,-0.3374748,0.4438343,0.8211842,5.573014,6.562451,-39.21516,993.9644
3.899187565,0.422767,0.2376879,0.1673032,-0.3286939,0.4445087,0.8211742,5.573014,6.562451,-39.21516,993.9644
3.901685715,0.4226342,0.1780539,0.2284509,-0.3287273,0.4464692,0.8225932,5.573014,6.562451,-39.21516,993.9644
3.906680584,0.4223686,0.177942,0.3506885,-0.3330114,0.4400336,0.8202533,5.573014,6.562451,-39.21516,993.9644
3.911676884,0.484046,0.4160675,0.3504682,-0.3296197,0.4415566,0.8197628,5.20582,6.57152,-38.32146,993.9644
3.914174557,0.2360455,0.4159367,0.2891579,-0.3335427,0.442456,0.820714,5.20582,6.57152,-38.32146,993.9644
3.919170856,0.3598019,0.237035,0.1665758,-0.3349526,0.4389437,0.8145303,5.20582,6.57152,-38.32146,993.9626
3.921668053,0.4836131,0.1774012,0.2277237,-0.3348934,0.436135,0.8221929,5.20582,6.57152,-38.32146,993.9626
3.926663876,0.359424,0.1772898,0.1052379,-0.3354993,0.4429766,0.8264434,5.20582,6.57152,-38.32146,993.9626
3.929162025,0.2353869,0.2367934,0.2276053,-0.3359303,0.4395175,0.822647,5.20582,6.57152,-38.32146,993.9626
3.934157848,0.2352196,0.1175634,0.1663006,-0.32967,0.4444941,0.8216525,5.20582,6.57152,-38.32146,993.9626
3.939153194,0.1731292,0.1175083,0.1661576,-0.3345048,0.4420335,0.8269272,5.20582,6.57152,-38.32146,993.9626
3.941651344,0.3589611,0.05791206,0.1049052,-0.3316337,0.4449116,0.81974,5.20582,6.57152,-38.32146,993.9626
3.946647167,0.2348309,0.2960941,0.2272397,-0.3311207,0.4434469,0.8183172,5.20582,6.57152,-38.32146,993.9626
3.949145317,0.2967192,0.1173232,0.1659681,-0.3306362,0.4440136,0.8235672,5.20582,6.57152,-38.32146,993.9626
3.954140186,0.4823802,0.2363681,0.2270449,-0.3320096,0.4385858,0.8193077,5.20582,6.57152,-38.32146,993.9626
3.956638336,0.3583044,0.1767346,0.1045731,-0.3325373,0.4410598,0.8235893,5.20582,6.57152,-38.32146,993.9626
3.961634159,0.4200414,0.2362016,0.04328799,-0.328212,0.4450367,0.8235584,5.205655,6.563023,-38.76793,993.9626
3.966630459,0.3578933,0.2360719,0.04329924,-0.3302187,0.4478872,0.8221063,5.205655,6.563023,-38.76793,993.9626
3.969128132,0.4197429,0.2359977,0.04328564,-0.3330666,0.4429003,0.8168892,5.205655,6.563023,-38.76793,993.9626
3.974123478,0.2956134,0.4740867,-0.0179033,-0.3369344,0.440933,0.8212045,5.205655,6.563023,-38.76793,993.9626
3.976621628,0.2335585,0.1761412,0.2269031,-0.332577,0.4429301,0.8183217,5.205655,6.563023,-38.76793,993.9626
3.981617451,0.1715275,0.3546711,-0.1403637,-0.3321359,0.4459233,0.8235544,5.205655,6.563023,-38.76793,993.9626
3.984115601,0.3573599,0.3545596,0.1656814,-0.3315933,0.4430542,0.8259629,5.205655,6.563023,-38.76793,993.9626
3.989110947,0.2331918,0.2352557,0.1043579,-0.3345088,0.4419755,0.8226287,5.205655,6.563023,-38.76793,993.9626
3.991608620,0.2331185,0.2947411,0.2879257,-0.3330083,0.4400787,0.8235966,5.205655,6.563023,-38.76793,993.9626
3.996604919,0.3568768,0.1755122,0.1654021,-0.3349715,0.4405026,0.8221618,5.205655,6.563023,-38.76793,993.9626
4.001600742,0.3566526,0.2349238,0.2876986,-0.3340766,0.4448398,0.8183089,5.205655,6.563023,-38.76793,993.9626
4.004097939,0.4185026,-0.0629465,0.3488084,-0.3349277,0.4380826,0.8226567,5.205655,6.563023,-38.76793,993.9626
4.009093761,0.1704887,-0.003385078,0.2262081,-0.335084,0.446818,0.8225945,5.205655,6.563023,-38.76793,993.9626
4.011591911,0.3563214,0.05617528,0.1037366,-0.3340219,0.4419667,0.8211955,5.585825,5.833177,-38.75585,993.9626
4.016587734,0.4180791,0.2943211,0.4096148,-0.3301288,0.4430793,0.8254842,5.585825,5.833177,-38.75585,993.9626
4.019085407,0.3559857,0.2346693,0.3482859,-0.332424,0.4347574,0.824112,5.585825,5.833177,-38.75585,993.9626
4.024081230,0.4796668,0.1749813,0.2868477,-0.3315643,0.4410293,0.8197677,5.585825,5.833177,-38.75585,993.9626
4.029077053,0.479346,0.2344307,0.1030861,-0.3306275,0.4435283,0.8235706,5.585825,5.833177,-38.75585,993.9626
4.031575203,0.4172333,0.1747977,0.4090548,-0.3276778,0.4420452,0.8168922,5.585825,5.833177,-38.75585,993.9626
4.036570549,0.4170101,0.1151099,0.3475783,-0.3330005,0.4395806,0.8226448,5.585825,5.833177,-38.75585,993.9626
4.039068222,0.4168791,0.174633,0.3474691,-0.3295776,0.4391108,0.8183472,5.585825,5.833177,-38.75585,993.9626
4.044064522,0.4785793,0.2935858,0.3472508,-0.3310595,0.4400563,0.818819,5.585825,5.833177,-38.75585,993.9608
4.046562195,0.1686185,0.174375,0.2859415,-0.3325409,0.4410082,0.8197684,5.585825,5.833177,-38.75585,993.9608
4.051558495,0.2304941,0.2338247,0.3469429,-0.3286131,0.4401797,0.824071,5.585825,5.833177,-38.75585,993.9608
4.054055691,0.4782701,0.05507334,0.4692343,-0.3320777,0.4424876,0.8207129,5.585825,5.833177,-38.75585,993.9608
4.059051514,0.3540454,0.4718042,0.2853966,-0.3302113,0.4473825,0.8206769,5.585825,5.833177,-38.75585,993.9608
4.064047337,0.4776693,0.2334015,0.346379,-0.3301962,0.4463797,0.8182957,5.579502,6.202061,-38.76227,993.9608
4.066545486,0.353595,0.1737689,0.1626696,-0.3306193,0.4430366,0.8230965,5.579502,6.202061,-38.76227,993.9608
4.071540833,0.3533534,0.2332378,0.2237676,-0.3355097,0.4434361,0.8245295,5.579502,6.202061,-38.76227,993.9608
4.074038982,0.4152045,0.2927238,0.2236973,-0.334498,0.4415224,0.8250202,5.579502,6.202061,-38.76227,993.9608
4.079034805,0.2290574,0.2329619,0.2236145,-0.3331385,0.4473582,0.8235447,5.579502,6.202061,-38.76227,993.9608
4.081532955,0.2289855,0.1733294,0.2235442,-0.3326477,0.4467932,0.8168612,5.579502,6.202061,-38.76227,993.9608
4.086527824,0.2288611,0.0541019,0.2233846,-0.3326043,0.4443667,0.8168785,5.579502,6.202061,-38.76227,993.9608
4.091524124,0.1667552,0.3518644,0.1620825,-0.3340495,0.4440109,0.8288235,5.579502,6.202061,-38.76227,993.9608
4.094021797,0.5384754,0.2921946,0.1008314,-0.337994,0.4452088,0.8159203,5.579502,6.202061,-38.76227,993.9608
4.099018097,0.1665008,0.05382995,0.1619875,-0.3276694,0.4421677,0.825967,5.579502,6.202061,-38.76227,993.9608
4.101515293,0.1044864,-0.06530556,-0.02166405,-0.3331394,0.4473453,0.8225895,5.579502,6.202061,-38.76227,993.9608
4.106511116,0.1663829,0.1133759,-0.02161199,-0.3262396,0.4441339,0.8254743,5.579502,6.202061,-38.76227,993.9608
4.109009266,0.1043685,-0.005778279,-0.0828054,-0.3354668,0.4410032,0.8240692,5.579502,6.202061,-38.76227,993.9608
4.114005089,0.414055,0.1728471,0.1619897,-0.332491,0.4380642,0.8174011,4.844455,6.186212,-38.76074,993.9608
4.119000435,0.1660828,0.05361993,-0.08287437,-0.3282452,0.4463895,0.8159062,4.844455,6.186212,-38.76074,993.9608
4.121498585,0.1040685,0.05360309,-0.08284833,-0.3272921,0.4485128,0.8278321,4.844455,6.186212,-38.76074,993.9608
4.126494408,0.351832,0.2322286,-0.1440157,-0.3355536,0.4458562,0.8240346,4.844455,6.186212,-38.76074,993.9608
4.128992558,0.2277973,0.1725964,-0.1439705,-0.335481,0.4420189,0.8274056,4.844455,6.186212,-38.76074,993.9608
4.133987904,0.1037106,0.2915691,-0.02149884,-0.3364681,0.4424575,0.8254923,4.844455,6.186212,-38.76074,993.9608
4.136485577,0.103678,-0.0658783,0.1009083,-0.3348912,0.4361672,0.824581,4.844455,6.186212,-38.76074,993.9608
4.141481400,0.04159236,-0.006296325,0.2232645,-0.3350368,0.4438353,0.8173614,4.844455,6.186212,-38.76074,993.9608
4.143979549,0.1035414,-0.006294347,0.100794,-0.3315569,0.4405246,0.8183383,4.844455,6.186212,-38.76074,993.9608
4.148975372,0.4132284,0.1127721,0.2231311,-0.3325378,0.4410534,0.8231117,4.844455,6.186212,-38.76074,993.9608
4.153970718,0.3510067,0.172298,0.1617523,-0.331563,0.4410486,0.8212005,4.844455,6.186212,-38.76074,993.9608
4.156468868,0.2889343,0.1722438,0.2229016,-0.3335556,0.4434911,0.8254832,4.844455,6.186212,-38.76074,993.9608
4.161464691,0.3507538,0.2316575,0.2227616,-0.3349669,0.4399594,0.8178667,5.953349,5.841101,-38.75661,993.9667
4.163962841,0.4745679,0.1720254,0.1002912,-0.3335678,0.4439248,0.8216588,5.953349,5.841101,-38.75661,993.9667
4.168958187,0.4742503,0.1718799,0.40621,-0.334074,0.4448785,0.8211747,5.953349,5.841101,-38.75661,993.9667
4.171455860,0.350177,0.1718259,0.2224818,-0.3351044,0.4477435,0.8192442,5.953349,5.841101,-38.75661,993.9667
