Time (s),Gyroscope X (deg/s),Gyroscope Y (deg/s),Gyroscope Z (deg/s),Accelerometer X (g),Accelerometer Y (g),Accelerometer Z (g),Magnetometer X (uT),Magnetometer Y (uT),Magnetometer Z (uT),Barometer (hPa)
0.000000000,-0.3405428,-0.06630601,0.2536058,-0.4847706,0.022999,0.849112,10.83258,28.88552,-32.78669,1001.514
0.002497196,-0.2784737,-0.1854038,0.008725353,-0.4808098,0.02020347,0.851518,10.83258,28.88552,-32.78669,1001.514
0.004993916,-0.2164242,-0.06622693,0.06992281,-0.4802997,0.01930781,0.8563008,10.83258,28.88552,-32.78669,1001.514
0.007491112,0.1554164,-0.006646827,0.131101,-0.4828681,0.02597213,0.8505228,10.83258,28.88552,-32.78669,1001.514
0.009988785,0.2173297,-0.1853226,0.008659457,-0.4848925,0.02978671,0.848586,10.83258,28.88552,-32.78669,1001.514
0.012485504,-0.03058699,-0.1852644,0.1922573,-0.4862767,0.02542619,0.851484,10.83258,28.88552,-32.78669,1001.514
0.014982700,0.0933468,-0.1852062,0.1921969,-0.4863669,0.03084178,0.8571774,10.83258,28.88552,-32.78669,1001.514
0.017479420,-0.4023792,-0.2447073,0.06973616,-0.4839019,0.02939974,0.8543202,10.83258,28.88552,-32.78669,1001.514
0.019976616,-0.5881391,-0.1850711,-0.2362868,-0.4803261,0.02075725,0.8558127,10.83258,28.88552,-32.78669,1001.514
0.024970531,0.03177342,-0.0658737,-0.05255694,-0.485219,0.02051046,0.8453088,10.83258,28.88552,-32.78669,1001.514
0.024970531,0.03177342,-0.0658737,-0.05255694,-0.485219,0.02051046,0.8453088,10.83258,28.88552,-32.78669,1001.514
0.029964447,0.2795434,-0.06583232,0.008676278,-0.4838399,0.02602199,0.8557772,10.46522,28.88609,-32.33946,1001.514
0.029964447,0.2795434,-0.06583232,0.008676278,-0.4838399,0.02602199,0.8557772,10.46522,28.88609,-32.33946,1001.514
0.032461643,0.2174935,-0.2444895,-0.05252665,-0.482887,0.02753111,0.8581542,10.46522,28.88609,-32.33946,1001.514
0.037455559,-0.2162804,-0.1847579,0.008725778,-0.4800099,0.02988531,0.8481048,10.46522,28.88609,-32.33946,1001.512
0.039953232,-0.2162125,-0.06558129,0.06992324,-0.4823675,0.02554888,0.8543468,10.46522,28.88609,-32.33946,1001.512
0.042449951,0.03170381,0.05355791,-0.1748995,-0.48528,0.02451526,0.8543559,10.46522,28.88609,-32.33946,1001.512
0.042449951,0.03170381,0.05355791,-0.1748995,-0.48528,0.02451526,0.8543559,10.46522,28.88609,-32.33946,1001.512
0.047444343,0.09364598,-0.006016321,0.06997269,-0.4823945,0.02699189,0.8533812,10.46522,28.88609,-32.33946,1001.512
0.047444343,0.09364598,-0.006016321,0.06997269,-0.4823945,0.02699189,0.8533812,10.46522,28.88609,-32.33946,1001.512
0.052438259,0.2174919,-0.06557184,-0.1748336,-0.4804555,0.02804959,0.8567162,10.46522,28.88609,-32.33946,1001.512
0.052438259,0.2174919,-0.06557184,-0.1748336,-0.4804555,0.02804959,0.8567162,10.46522,28.88609,-32.33946,1001.512
0.054934978,-0.09238691,0.05356736,-0.1747787,-0.4829787,0.03231321,0.8528659,10.46522,28.88609,-32.33946,1001.512
0.057432174,-0.0303958,0.1726691,0.07007702,-0.4823971,0.02695322,0.8505155,10.46522,28.88609,-32.33946,1001.512
0.062426090,-0.526015,-0.00602369,-0.1135292,-0.4799131,0.02456637,0.8495757,10.46522,28.88609,-32.33946,1001.512
0.064923763,-0.1540772,-0.006021798,-0.05229329,-0.4799286,0.02556274,0.8514793,10.46522,28.88609,-32.33946,1001.512
0.064923763,-0.1540772,-0.006021798,-0.05229329,-0.4799286,0.02556274,0.8514793,10.46522,28.88609,-32.33946,1001.512
0.069917679,0.2177337,0.05352257,-0.05224121,-0.4826497,0.01385903,0.852042,10.46522,28.88609,-32.33946,1001.512
0.072417736,0.2796274,0.05350576,-0.113425,-0.4824305,0.02891374,0.8519345,10.46522,28.88609,-32.33946,1001.512
0.074911594,0.2795396,0.1130482,-0.05218916,-0.4799885,0.02897271,0.8524103,10.46522,28.88609,-32.33946,1001.512
0.077408790,0.03160337,0.1130127,0.1314278,-0.4790117,0.02960788,0.8619585,11.21292,28.16417,-32.32814,1001.514
0.079905510,-0.2162549,0.05341793,0.008986147,-0.4809668,0.02954009,0.8600495,11.21292,28.16417,-32.32814,1001.514
0.079905510,-0.2162549,0.05341793,0.008986147,-0.4809668,0.02954009,0.8600495,11.21292,28.16417,-32.32814,1001.514
0.084899902,-0.03021333,0.2320248,-0.05220047,-0.4793462,0.02021565,0.8500841,11.21292,28.16417,-32.32814,1001.514
0.087396621,0.09372034,-0.06584454,-0.1133843,-0.4793727,0.02166509,0.8495961,11.21292,28.16417,-32.32814,1001.514
0.089893818,0.4654635,-0.06582385,-0.1133487,-0.4819031,0.02704749,0.8567241,11.21292,28.16417,-32.32814,1001.514
0.092390537,0.341393,0.2915526,-0.05211284,-0.4858231,0.02737788,0.8514698,11.21292,28.16417,-32.32814,1001.514
0.094888210,0.09343741,0.1127831,0.009103729,-0.4853555,0.0289216,0.8571904,11.21292,28.16417,-32.32814,1001.514
0.097390175,0.2792943,0.0531884,-0.1132995,-0.482928,0.02938209,0.8514538,11.21292,28.16417,-32.32814,1001.514
0.099882126,-0.03060387,-0.006387614,-0.1744641,-0.4843851,0.0288524,0.8505031,11.21292,28.16417,-32.32814,1001.514
0.102379322,0.03136783,-0.06594491,0.07039148,-0.479439,0.02559257,0.8529118,11.21292,28.16417,-32.32814,1001.514
0.104876041,0.03135797,0.172313,-0.1744314,-0.4798779,0.02263163,0.8500671,11.21292,28.16417,-32.32814,1001.514
0.107373237,0.09331021,0.1126996,-0.05197624,-0.4829384,0.02984161,0.8495398,11.21292,28.16417,-32.32814,1001.514
0.109870434,0.2172051,-0.006454427,0.009240287,-0.4828846,0.02695561,0.8514711,11.21292,28.16417,-32.32814,1001.514
0.112367153,0.2171368,-0.0660117,0.009237384,-0.4779694,0.0250808,0.8486155,11.21292,28.16417,-32.32814,1001.514
0.114864349,0.09314445,-0.006431662,0.07043468,-0.4819019,0.02645266,0.8486081,11.21292,28.16417,-32.32814,1001.514
0.117362022,0.2790015,-0.06598894,-0.1743882,-0.480977,0.02939189,0.8490642,11.21292,28.16417,-32.32814,1001.515
0.119858265,0.2169517,-0.006408911,-0.2355337,-0.4804886,0.02940239,0.8490639,11.21292,28.16417,-32.32814,1001.515
0.122355938,0.1549215,0.0531524,-0.1742595,-0.4823871,0.02648726,0.8519518,11.21292,28.16417,-32.32814,1001.515
0.124852657,0.03094862,-0.006423593,-0.05180432,-0.4823584,0.02507002,0.8548279,11.21292,28.16417,-32.32814,1001.515
0.127349853,0.03093889,-0.1850995,-0.05178805,-0.483429,0.0297989,0.8471521,11.19378,29.26233,-32.79388,1001.515
0.129847050,0.03092917,0.1127552,-0.1741722,-0.4857793,0.02495784,0.8519647,11.19378,29.26233,-32.79388,1001.515
0.132343769,0.1548436,-0.006398842,-0.05171706,-0.4833936,0.02847831,0.8571925,11.19378,29.26233,-32.79388,1001.515
0.134840965,0.154795,-0.06595613,0.1318998,-0.4794078,0.02359984,0.8491046,11.19378,29.26233,-32.79388,1001.515
0.137337684,0.03082218,-0.00637611,-0.05174225,-0.4779676,0.02510657,0.850526,11.19378,29.26233,-32.79388,1001.515
0.139834881,0.03081249,-0.06593341,-0.1129262,-0.4828242,0.02355208,0.8510177,11.19378,29.26233,-32.79388,1001.515
0.142332077,0.03080282,0.05320591,0.1319101,-0.486627,0.01763805,0.8505844,11.19378,29.26233,-32.79388,1001.515
0.144828796,0.09275523,-0.06592941,0.07066844,-0.4780063,0.02698977,0.8462136,11.19378,29.26233,-32.79388,1001.515
0.147326469,0.09272609,-0.125468,0.009446044,-0.4794003,0.02370938,0.8572242,11.19378,29.26233,-32.79388,1001.515
0.149822712,0.09269696,-0.006309979,0.009443076,-0.4838946,0.02889512,0.8528908,11.19378,29.26233,-32.79388,1001.515
0.152320385,0.03070574,-0.006307997,-0.1129603,-0.4828732,0.02650897,0.8543403,11.19378,29.26233,-32.79388,1001.515
0.154817581,-0.2171523,-0.006306015,0.1930762,-0.4832609,0.02062336,0.8505611,11.19378,29.26233,-32.79388,1001.515
0.157319069,0.03076431,-0.006304033,0.07061514,-0.4851264,0.01574126,0.8515524,11.19378,29.26233,-32.79388,1001.513
0.159811497,0.1546788,-0.06586135,-0.05180745,-0.48761,0.01813455,0.8529698,11.19378,29.26233,-32.79388,1001.513
0.162308216,0.2785544,-0.1849593,0.1318094,-0.4872446,0.02491988,0.8514882,11.19378,29.26233,-32.79388,1001.513
0.164805412,0.2784669,-0.1849011,0.009367622,-0.4863279,0.02835086,0.8524185,11.19378,29.26233,-32.79388,1001.513
0.167302608,0.09249315,-0.06572447,0.07056488,-0.4823515,0.02455896,0.8529208,11.19378,29.26233,-32.79388,1001.513
0.169799328,-0.09342217,-0.006144524,-0.05185769,-0.4779467,0.02418752,0.8543539,11.19378,29.26233,-32.79388,1001.513
0.172296524,-0.09339282,-0.006142594,-0.0518414,-0.4793335,0.01978834,0.8543862,11.19378,29.26233,-32.79388,1001.513
0.174793243,0.216447,-0.1848186,0.07057529,-0.4854038,0.0312772,0.8519194,11.19378,29.26233,-32.79388,1001.513
0.177290439,0.3403032,-0.0656419,0.009352917,-0.481042,0.0333387,0.8538128,10.81994,29.62329,-32.79954,1001.513
0.179788112,0.2782342,-0.06562128,-0.05185022,-0.4809412,0.02807775,0.8595822,10.81994,29.62329,-32.79954,1001.513
0.182284832,-0.0936258,-0.006041363,0.009366267,-0.4828036,0.02324076,0.8639168,10.81994,29.62329,-32.79954,1001.513
0.184782028,-0.1555585,0.05351984,0.07056352,-0.48225,0.01869673,0.8500966,10.81994,29.62329,-32.79954,1001.513
0.187278747,-0.03158543,0.05350302,0.07054136,-0.4831671,0.01525932,0.8486887,10.81994,29.62329,-32.79954,1001.513
0.189775944,0.340197,0.1726048,0.1317194,-0.4793714,0.02168442,0.851029,10.81994,29.62329,-32.79954,1001.513
0.192273140,0.6499006,0.2916692,0.131678,-0.485248,0.02253542,0.851504,10.81994,29.62329,-32.79954,1001.513
0.194771766,0.4638102,0.2915776,0.07043645,-0.4882811,0.02830884,0.8524199,10.81994,29.62329,-32.79954,1001.513
0.197267055,0.153854,-0.006310545,0.009214119,-0.483345,0.02551499,0.8533922,10.81994,29.62329,-32.79954,1001.516
0.199763775,0.2777299,-0.1254272,-0.05198898,-0.4828489,0.0250273,0.8524401,10.81994,29.62329,-32.79954,1001.516
0.202260971,0.1537184,-0.006269157,0.07042776,-0.4857376,0.02250558,0.8500715,10.81994,29.62329,-32.79954,1001.516
0.204758644,-0.03221615,0.05329211,0.192806,-0.481362,0.02354494,0.8481508,10.81994,29.62329,-32.79954,1001.516
0.207254886,0.3395665,0.2915126,0.1315453,-0.4852575,0.02300783,0.8505453,10.81994,29.62329,-32.79954,1001.516
0.209752559,0.4014219,0.291421,0.07030373,-0.4857205,0.02214271,0.8591497,10.81994,29.62329,-32.79954,1001.516
0.212249279,0.3393337,-0.006467067,0.07028165,-0.4833286,0.0245315,0.8524439,10.81994,29.62329,-32.79954,1001.516
0.214746475,-0.03254542,-0.06602433,0.1314598,-0.4833751,0.02691289,0.8490833,10.81994,29.62329,-32.79954,1001.516
0.217243671,0.02942689,-0.1851222,0.1314185,-0.4794504,0.02603921,0.8500426,10.81994,29.62329,-32.79954,1001.516
0.219740391,0.4011902,-0.2446233,0.1925774,-0.4769779,0.02470671,0.8553049,10.81994,29.62329,-32.79954,1001.516
0.222237587,0.3391021,0.05325001,0.008916281,-0.4798478,0.02123373,0.8543761,10.81994,29.62329,-32.79954,1001.516
0.224734306,0.02918508,-0.006326012,-0.1134869,-0.4855675,0.01274809,0.8463197,10.81994,29.62329,-32.79954,1001.516
0.227231502,-0.03278618,-0.1254426,0.07014933,-0.4818416,0.02304913,0.8481547,10.46522,28.88609,-32.33946,1001.516
0.229728699,0.4009587,0.112834,0.1925277,-0.4838002,0.0229298,0.8424247,10.46522,28.88609,-32.33946,1001.516
0.232225418,0.6486812,0.05323923,0.131267,-0.4819202,0.02741037,0.8476459,10.46522,28.88609,-32.33946,1001.516
0.234723091,0.4625911,-0.1850147,0.1312258,-0.4790206,0.02947901,0.8524061,10.46522,28.88609,-32.33946,1001.516
0.237219333,0.1526353,-0.1253973,0.1923847,-0.4834114,0.02944246,0.8567079,10.46522,28.88609,-32.33946,1001.516
0.239717007,-0.1572231,-0.2444765,0.1311241,-0.4845065,0.03626071,0.8600036,10.46522,28.88609,-32.33946,1001.516
0.242214203,-0.09521161,-0.303959,0.06988271,-0.4819387,0.02897579,0.855755,10.46522,28.88609,-32.33946,1001.516
0.244710922,-0.2191059,-0.1847449,0.008660558,-0.4777842,0.01554238,0.8611028,10.46522,28.88609,-32.33946,1001.516
0.247208118,-0.4049233,-0.3038055,0.008657837,-0.4802555,0.01628005,0.8477244,10.46522,28.88609,-32.33946,1001.516
0.249705314,-0.2808719,-0.1845914,0.1310555,-0.4750333,0.02401214,0.8366799,10.46522,28.88609,-32.33946,1001.516
0.252202034,0.5247235,-0.1249741,0.1310143,-0.4600755,0.03395349,0.8299128,10.46522,28.88609,-32.33946,1001.516
0.254699230,0.7104449,-0.1844941,0.1309732,-0.4642023,0.0236894,0.9035488,10.46522,28.88609,-32.33946,1001.516
0.257195949,0.7102218,1.304546,0.008531639,-0.510381,0.009854744,0.8874341,10.46522,28.88609,-32.33946,1001.516
0.259694099,-0.1574707,0.410747,0.1921296,-0.5375139,0.04649196,0.8031196,10.46522,28.88609,-32.33946,1001.516
0.262190819,-0.6531178,-1.49528,-0.175132,-0.4783106,0.04274683,0.8269948,10.46522,28.88609,-32.33946,1001.516
0.264687538,-0.2811402,-0.5418611,-0.175077,-0.4460459,0.01742125,0.877789,10.46522,28.88609,-32.33946,1001.516
0.267184734,0.338569,0.9472916,0.3145796,-0.4891355,0.0208924,0.8438753,10.46522,28.88609,-32.33946,1001.516
0.269681454,0.7721973,0.1131638,0.1920804,-0.4949761,0.01982153,0.8457971,10.46522,28.88609,-32.33946,1001.516
0.272178650,0.5241063,-0.7207019,0.008419449,-0.4655104,0.01370711,0.8854696,10.46522,28.88609,-32.33946,1001.516
0.274675846,-0.2815655,-0.3631197,0.008416804,-0.4647366,0.02362296,0.8634259,10.46522,28.88609,-32.33946,1001.516
0.277172565,-0.3434391,0.05390947,0.1920148,-0.4833688,0.02578121,0.8371497,10.8201,29.63178,-32.35307,1001.517
0.279669761,0.1523655,0.2921298,0.06955404,-0.491032,0.01739531,0.8396025,10.8201,29.63178,-32.35307,1001.517
0.282166481,0.8339007,-0.005758539,0.1307324,-0.4824071,0.02741919,0.8490791,10.8201,29.63178,-32.35307,1001.517
0.284663677,0.8336387,-0.1844346,0.1918915,-0.4795969,0.0349163,0.8604879,10.8201,29.63178,-32.35307,1001.517
0.287161350,0.08983167,-0.1248174,0.00823063,-0.4725433,0.0235451,0.8701183,10.8201,29.63178,-32.35307,1001.517
0.289657593,-0.4058933,0.05389973,-0.1141724,-0.4803751,0.02371414,0.8591353,10.8201,29.63178,-32.35307,1001.517
0.292155266,-0.2818416,0.1134421,0.008263913,-0.4788514,0.01970864,0.8476991,10.8201,29.63178,-32.35307,1001.517
0.294651985,0.0900195,-0.18439,0.008261316,-0.4729552,0.01791927,0.849619,10.8201,29.63178,-32.35307,1001.517
0.297149181,0.6476501,0.1134644,0.06945892,-0.4813453,0.02317562,0.8567514,10.8201,29.63178,-32.35307,1001.517
0.299646377,0.6474466,0.172988,0.1306373,-0.4819914,0.03126696,0.8457078,10.8201,29.63178,-32.35307,1001.517
0.302143097,0.1515464,0.1133744,-0.05300434,-0.483301,0.02370911,0.8634361,10.8201,29.63178,-32.35307,1001.517
0.304640293,-0.4061599,0.1133388,0.00821251,-0.4845776,0.0129624,0.8606476,10.8201,29.63178,-32.35307,1001.517
0.307137012,-0.9636911,-0.005815431,0.2530107,-0.4844709,0.006563335,0.8540058,10.8201,29.63178,-32.35307,1001.517
0.309634209,0.08996709,0.05374569,0.4365318,-0.4870892,0.01494977,0.8319749,10.8201,29.63178,-32.35307,1001.517
0.312131405,1.205256,-0.1249491,0.497595,-0.4828709,0.0253193,0.8381081,10.8201,29.63178,-32.35307,1001.517
0.314628124,1.700575,-0.005791232,0.2526378,-0.4747977,0.03930525,0.8542442,10.8201,29.63178,-32.35307,1001.517
0.317125797,1.39023,0.1133292,0.1913582,-0.4743311,0.04205797,0.8776299,10.8201,29.63178,-32.35307,1001.515
0.319622040,0.5223238,0.4706494,0.1300979,-0.4884925,0.04174691,0.8771627,10.8201,29.63178,-32.35307,1001.515
0.322119713,0.08842508,0.5300608,0.3748578,-0.5046248,0.03991422,0.8389721,10.8201,29.63178,-32.35307,1001.515
0.324616909,-0.7790719,-0.2443766,0.06873906,-0.4903247,0.03306825,0.8485658,10.8201,29.63178,-32.35307,1001.515
0.327113628,-1.336486,-0.4229777,-0.1148831,-0.4582089,0.01352961,0.860628,10.46506,28.87759,-32.78593,1001.515
0.329610824,-0.592521,0.2323075,0.2523541,-0.4727719,0.006519035,0.8320267,10.46506,28.87759,-32.78593,1001.515
0.332107544,0.8327932,0.2917938,0.06867427,-0.4894918,0.01240633,0.8272179,10.46506,28.87759,-32.78593,1001.515
0.334604740,2.009811,0.2321428,0.1298529,-0.4832925,0.02260965,0.8538906,10.46506,28.87759,-32.78593,1001.515
0.337101936,1.947218,0.2916292,0.1910123,-0.4908423,0.03569042,0.8638327,10.46506,28.87759,-32.78593,1001.515
0.339598656,0.7073643,0.1128597,0.2521525,-0.492088,0.05071361,0.8637263,10.46506,28.87759,-32.78593,1001.515
0.342095852,-0.7799481,-0.0658537,-0.05392772,-0.4796445,0.03789252,0.8652434,10.46506,28.87759,-32.78593,1001.515
0.344592571,-1.523248,0.1128449,0.007289423,-0.4767797,0.01291139,0.8444027,10.46506,28.87759,-32.78593,1001.515
0.347090244,-0.8411867,-0.2445464,0.1296875,-0.476635,0.004008519,0.8320469,10.46506,28.87759,-32.78593,1001.515
0.349587440,0.770092,-0.006232336,0.190847,-0.4746337,0.002302647,0.8463878,10.46506,28.87759,-32.78593,1001.515
0.352084160,1.823206,0.470244,0.2519872,-0.4954849,0.02073652,0.8424472,10.46506,28.87759,-32.78593,1001.515
0.354581356,1.512822,0.1127405,0.3743085,-0.4905189,0.04369968,0.8451465,10.46506,28.87759,-32.78593,1001.515
0.357078075,1.01665,-0.2446507,0.1905903,-0.4763041,0.04234016,0.8656874,10.46506,28.87759,-32.78593,1001.515
0.359575271,0.3347479,-0.1254553,0.06813,-0.4806247,0.03781997,0.8614232,10.46506,28.87759,-32.78593,1001.516
0.362072468,-0.2849782,0.1128213,0.1293088,-0.4842907,0.02410896,0.8586571,10.46506,28.87759,-32.78593,1001.516
0.364569187,-0.6566611,-0.4232478,0.1292682,-0.4837383,0.02015977,0.852953,10.46506,28.87759,-32.78593,1001.516
0.367066383,-0.2846823,-0.3039962,-0.05437304,-0.4738663,0.0139579,0.8453489,10.46506,28.87759,-32.78593,1001.516
0.369563103,0.5209143,0.05345508,0.06804445,-0.4734163,0.01585804,0.8415138,10.46506,28.87759,-32.78593,1001.516
0.372060299,1.140372,0.1129976,0.06802307,-0.4804018,0.02454942,0.8490984,10.46506,28.87759,-32.78593,1001.516
0.374557972,1.201975,0.1725214,0.0680017,-0.4834461,0.03138365,0.8566941,10.46506,28.87759,-32.78593,1001.516
0.377054214,0.5819768,-0.1253293,0.1903807,-0.4830128,0.034875,0.8628786,10.83258,28.88552,-32.78669,1001.516
0.379551887,-0.1617511,-0.1252899,0.1291207,-0.4804544,0.02867664,0.8672203,10.83258,28.88552,-32.78669,1001.516
0.382049084,-0.1617002,0.1725459,0.006679761,-0.4882077,0.02448446,0.8567461,10.83258,28.88552,-32.78669,1001.516
0.384548187,0.2101231,-0.1253048,0.1290781,-0.4921618,0.02615476,0.8428842,10.83258,28.88552,-32.78669,1001.516
0.387042999,0.3339812,-0.4230619,0.06783731,-0.4780809,0.03140899,0.8500034,10.83258,28.88552,-32.78669,1001.516
0.389539718,0.5817247,-0.1251325,-0.0545844,-0.4746648,0.03206446,0.8571618,10.83258,28.88552,-32.78669,1001.516
0.392036915,0.5195798,0.2322626,-0.1157675,-0.4818285,0.02262827,0.8529343,10.83258,28.88552,-32.78669,1001.516
0.394534111,0.2715683,0.113071,0.06786951,-0.4788118,0.01783833,0.8529667,10.83258,28.88552,-32.78669,1001.516
0.397030830,0.08559667,-0.1252017,0.1290484,-0.4784922,0.02762564,0.858151,10.83258,28.88552,-32.78669,1001.516
0.399528503,0.209494,-0.06560306,0.006607453,-0.4828815,0.02700071,0.8548144,10.83258,28.88552,-32.78669,1001.518
0.402024746,0.4572765,-0.1251418,0.06780558,-0.481431,0.02743375,0.8486008,10.83258,28.88552,-32.78669,1001.518
0.404522419,0.7669433,-0.005983837,0.1901847,-0.4828772,0.02645098,0.8500416,10.83258,28.88552,-32.78669,1001.518
0.407019615,0.518854,-0.06554126,0.2513251,-0.4811015,0.0367551,0.8552214,10.83258,28.88552,-32.78669,1001.518
0.409516334,0.3947668,0.05359793,0.1288458,-0.4806483,0.03870036,0.8547297,10.83258,28.88552,-32.78669,1001.518
0.412013531,0.02287025,0.1726997,0.1288053,-0.4779029,0.02176748,0.8548489,10.83258,28.88552,-32.78669,1001.518
0.414510250,-0.2249853,0.05352684,0.1287648,-0.4764228,0.02079618,0.8524665,10.83258,28.88552,-32.78669,1001.518
0.417007446,-0.1629525,-0.06560858,0.006323976,-0.4720511,0.02177755,0.8462473,10.83258,28.88552,-32.78669,1001.518
0.419504642,0.3327954,0.1130899,0.1899226,-0.4754562,0.02128316,0.8510295,10.83258,28.88552,-32.78669,1001.518
0.422001362,0.5805392,0.3512916,0.1898629,-0.4852121,0.02122128,0.862022,10.83258,28.88552,-32.78669,1001.518
0.424498558,0.3944706,0.291622,0.006202675,-0.4891367,0.02148723,0.8519914,10.83258,28.88552,-32.78669,1001.518
0.426995277,0.2084604,0.1128524,0.006200727,-0.4853766,0.02922648,0.8438137,11.20659,28.53305,-32.33456,1001.518
0.429492473,0.3323191,-0.06586093,0.1285992,-0.4790562,0.03140731,0.851437,11.20659,28.53305,-32.33456,1001.518
0.431990147,0.3322147,-0.006280936,0.1285588,-0.4795249,0.03045843,0.8538324,11.20659,28.53305,-32.33456,1001.518
0.434492111,0.3940724,0.1723989,0.1897186,-0.4858293,0.02728767,0.8447831,11.20659,28.53305,-32.33456,1001.518
0.436984062,0.3319865,0.1127855,0.189659,-0.4824733,0.03073895,0.8433235,11.20659,28.53305,-32.33456,1001.518
0.439480781,0.1459959,0.11275,-0.0552014,-0.479352,0.02135377,0.8624952,11.20659,28.53305,-32.33456,1001.517
0.441977978,0.14595,0.2913925,0.1284166,-0.4794208,0.02463486,0.8538739,11.20659,28.53305,-32.33456,1001.517
0.444475174,0.08394211,0.05306378,0.06717601,-0.47997,0.02740728,0.8443012,11.20659,28.53305,-32.33456,1001.517
0.446971893,0.3317641,0.1126064,0.005954701,-0.47273,0.03245002,0.8466492,11.20659,28.53305,-32.33456,1001.517
0.449469089,0.2696978,-0.06610687,0.1895534,-0.4628438,0.02645433,0.8543289,11.20659,28.53305,-32.33456,1001.517
0.451965809,0.3315752,0.350829,0.00589328,-0.4744414,0.02185829,0.8921039,11.20659,28.53305,-32.33456,1001.517
0.454463005,0.1455847,1.06543,0.06709163,-0.5125529,0.02008977,0.8577471,11.20659,28.53305,-32.33456,1001.517
0.456960678,0.2075011,0.2908248,0.1282708,-0.5188124,0.03922301,0.8103254,11.20659,28.53305,-32.33456,1001.517
0.459460258,0.2074359,-0.7217747,-0.05537015,-0.47666,0.03324638,0.8399586,11.20659,28.53305,-32.33456,1001.517
0.461954594,0.08344653,-0.1259549,0.06704765,-0.4584088,0.02529916,0.8696198,11.20659,28.53305,-32.33456,1001.517
0.464451313,0.08342031,0.7079148,0.005826386,-0.4891233,0.02045865,0.8476998,11.20659,28.53305,-32.33456,1001.517
0.466948509,0.2692804,0.4694552,0.1894252,-0.4919607,0.01501226,0.8443967,11.20659,28.53305,-32.33456,1001.517
0.469445705,0.39312,-0.3049632,0.1281655,-0.4694309,0.01280917,0.8611174,11.20659,28.53305,-32.33456,1001.517
0.471942425,0.2690723,-0.007070851,0.005724781,-0.4715744,0.02284241,0.8524491,11.20659,28.53305,-32.33456,1001.517
0.474439621,0.3929119,0.2311686,0.06692319,-0.4828997,0.02795842,0.8538522,11.20659,28.53305,-32.33456,1001.517
0.476936817,0.5167127,0.1715367,0.1281024,-0.4843644,0.02731919,0.844782,11.20027,28.90194,-32.34098,1001.517
0.479433536,0.6404746,-0.1263137,0.005661713,-0.4771021,0.03146221,0.8523908,11.20027,28.90194,-32.34098,1001.519
0.481930733,0.3304629,0.05240384,0.1280603,-0.4809085,0.02671851,0.8667569,11.20027,28.90194,-32.34098,1001.519
0.484427452,-0.1653377,0.4097432,0.005619703,-0.4887345,0.02697131,0.861983,11.20027,28.90194,-32.34098,1001.519
0.486925125,-0.351172,-0.007300649,-0.05558227,-0.4906144,0.02126887,0.8381416,11.20027,28.90194,-32.34098,1001.519
0.489422321,0.08267295,-0.007298354,0.005635399,-0.475001,0.02264646,0.8433769,11.20027,28.90194,-32.34098,1001.519
0.491919041,0.4544195,0.1713818,0.06683383,-0.4716052,0.02484159,0.8567339,11.20027,28.90194,-32.34098,1001.519
0.494416237,0.5782009,0.2904466,0.005612632,-0.4866873,0.02104157,0.8510379,11.20027,28.90194,-32.34098,1001.519
0.496913433,0.4540951,0.2307961,0.06681107,-0.4818701,0.02508053,0.8548275,11.20027,28.90194,-32.34098,1001.519
0.499410152,0.2061041,0.05204564,0.06679008,-0.4804989,0.03047608,0.8566989,11.20027,28.90194,-32.34098,1001.519
0.501907349,0.2060393,-0.007530008,-0.05563131,-0.4834332,0.03034863,0.8519248,11.20027,28.90194,-32.34098,1001.519
0.504404068,0.2679367,0.1711503,0.06678657,-0.4858413,0.02833559,0.8505076,11.20027,28.90194,-32.34098,1001.519
0.506901264,0.2678525,-0.007581409,0.189166,-0.4814601,0.02884454,0.8452471,11.20027,28.90194,-32.34098,1001.519
0.509399891,0.2677684,-0.007579029,0.2503068,-0.483305,0.02365112,0.8591375,11.20027,28.90194,-32.34098,1001.519
0.511895180,0.1437601,-0.007576648,0.06662753,-0.4818746,0.02501609,0.8500513,11.20027,28.90194,-32.34098,1001.519
0.514392853,0.205677,-0.1862522,0.1278068,-0.4848166,0.02538683,0.846229,11.20027,28.90194,-32.34098,1001.519
0.516889572,0.2675745,-0.1266344,0.1889669,-0.4847844,0.02402114,0.8529261,11.20027,28.90194,-32.34098,1001.519
0.519386768,0.3294525,0.05208333,0.06650708,-0.4833736,0.02754638,0.8600651,11.20027,28.90194,-32.34098,1001.517
0.521886825,0.2054248,-0.1861702,0.1888866,-0.4819814,0.030801,0.8471441,11.20027,28.90194,-32.34098,1001.517
0.524380684,0.2673224,-0.245671,0.127627,-0.4815579,0.03415059,0.842821,11.20027,28.90194,-32.34098,1001.517
0.526877880,0.2672384,0.1713212,0.005186549,-0.4805993,0.03574347,0.8514071,11.57396,28.53248,-32.7818,1001.517
0.529374599,0.2671545,0.1117081,-0.05601528,-0.4820411,0.03482513,0.8576241,11.57396,28.53248,-32.7818,1001.517
0.531871796,-0.3525504,-0.06700489,-0.1171979,-0.4779053,0.02234299,0.861532,11.57396,28.53248,-32.7818,1001.517
0.534368515,-0.5383259,-0.06698383,-0.05596086,-0.4813364,0.0220826,0.8476836,11.57396,28.53248,-32.7818,1001.517
0.536865711,0.01950202,-0.1860814,0.06645712,-0.4800635,0.0321636,0.8371023,11.57396,28.53248,-32.7818,1001.517
0.539363384,0.3912684,-0.007345028,0.005236039,-0.4854325,0.03269444,0.8490433,11.57396,28.53248,-32.7818,1001.517
0.541859627,0.1432972,-0.06690203,-0.117166,-0.4853121,0.02649511,0.8572077,11.57396,28.53248,-32.7818,1001.517
0.544357300,-0.5383309,-0.2455589,-0.055929,-0.4762581,0.01218326,0.8616036,11.57396,28.53248,-32.7818,1001.517
0.546854496,-0.1044271,-0.1859225,0.005288774,-0.4700153,0.01751633,0.8510532,11.57396,28.53248,-32.7818,1001.517
0.549351215,0.7011129,-0.06674545,0.06648731,-0.4782092,0.03810649,0.8427908,11.57396,28.53248,-32.7818,1001.517
0.551848411,0.7008927,0.1715127,-0.05593398,-0.4806352,0.03827949,0.8595093,11.57396,28.53248,-32.7818,1001.517
0.554345131,0.2669378,0.05234024,-0.05591641,-0.4878861,0.03368983,0.8547696,11.57396,28.53248,-32.7818,1001.517
0.556842327,-0.414729,-0.4837099,0.005301364,-0.4714037,0.03963856,0.8375215,11.57396,28.53248,-32.7818,1001.517
0.559339046,-1.405992,-0.6622358,0.0664999,-0.4563086,0.01769241,0.8782708,11.57396,28.53248,-32.7818,1001.52
0.561836243,-1.653399,0.5887175,0.066479,-0.4770495,-0.02330919,0.8952938,11.57396,28.53248,-32.7818,1001.52
0.564333439,0.3918695,1.601041,0.3112589,-0.5312372,-0.003831156,0.8058634,11.57396,28.53248,-32.7818,1001.52
0.566830158,2.312571,-0.126682,0.4335615,-0.5179453,0.04376838,0.7859316,11.57396,28.53248,-32.7818,1001.52
0.569327831,2.249882,-1.19871,-0.1173765,-0.4466771,0.05288658,0.8804023,11.57396,28.53248,-32.7818,1001.52
0.571824074,0.9479719,0.409768,0.1274612,-0.4568562,0.04948155,0.8961955,11.57396,28.53248,-32.7818,1001.52
0.574321747,-0.6633402,1.24347,0.372222,-0.5055758,0.03843088,0.8385056,11.57396,28.53248,-32.7818,1001.52
0.576818943,-1.406677,-0.4841408,-0.05629638,-0.4849755,0.006928592,0.8458833,11.56763,28.90137,-32.78822,1001.52
0.579315662,-1.468197,-0.8413445,-0.05627869,-0.445127,-0.006884645,0.8741406,11.56763,28.90137,-32.78822,1001.52
0.581812858,-0.3524182,0.3501058,0.3109402,-0.4712451,0.003780518,0.842554,11.56763,28.90137,-32.78822,1001.52
0.584314346,1.444593,1.124267,0.4944431,-0.5137486,0.0297252,0.8180329,11.56763,28.90137,-32.78822,1001.52
0.586806774,3.055153,0.6474391,0.4330876,-0.5164877,0.04736245,0.8341492,11.56763,28.90137,-32.78822,1001.52
0.589303970,1.257293,-0.2461538,0.2493509,-0.4957604,0.03813428,0.8728938,11.56763,28.90137,-32.78822,1001.52
0.591800690,-1.593358,-0.7821102,0.06567198,-0.4513995,0.01634155,0.8782775,11.56763,28.90137,-32.78822,1001.52
0.594297886,-1.654819,-0.06715286,0.1268515,-0.4556247,0.006483088,0.8740513,11.56763,28.90137,-32.78822,1001.52
0.596795559,0.9481082,1.124054,0.1268117,-0.4929095,0.01233925,0.8276981,11.56763,28.90137,-32.78822,1001.52
0.599291801,2.806673,0.4685488,0.3715727,-0.5110925,0.04537572,0.8222187,11.56763,28.90137,-32.78822,1001.519
0.601789474,2.000284,-0.6036658,0.1266551,-0.4721334,0.05446403,0.8579558,11.56763,28.90137,-32.78822,1001.519
0.604286194,-0.04509325,-0.365239,0.06541514,-0.4552323,0.04081637,0.8991224,11.56763,28.90137,-32.78822,1001.519
0.606783390,-1.780018,0.5282653,0.004194382,-0.474486,0.02182168,0.8534134,11.56763,28.90137,-32.78822,1001.519
0.609280586,-1.2218,0.5280993,0.5549949,-0.510308,0.0017441,0.8258732,11.56763,28.90137,-32.78822,1001.519
0.611777306,0.8852953,0.2896962,0.5548205,-0.5181448,0.003064144,0.8282567,11.56763,28.90137,-32.78822,1001.519
0.614274502,1.008941,-0.6633435,0.3098454,-0.4849999,0.007796093,0.8382344,11.56763,28.90137,-32.78822,1001.519
0.616771221,1.194511,-0.5440166,0.3097481,-0.4461093,0.01955778,0.8562789,11.56763,28.90137,-32.78822,1001.519
0.619268417,2.061605,0.1113066,0.3096507,-0.4582662,0.04413315,0.8618426,11.56763,28.90137,-32.78822,1001.519
0.621766090,2.184881,0.766424,0.3095535,-0.4971279,0.05933747,0.86319,11.56763,28.90137,-32.78822,1001.519
0.624262333,1.006915,0.527946,0.3094562,-0.5096307,0.04842006,0.8656635,11.56763,28.90137,-32.78822,1001.519
0.626760006,-0.7903019,-0.7229652,0.1869586,-0.4908124,0.03367835,0.8585927,10.82643,29.2629,-32.34665,1001.519
0.629256248,-2.77284,-1.37789,-0.05790093,-0.4528243,0.01200241,0.8467834,10.82643,29.2629,-32.34665,1001.519
0.631753921,-2.028425,-0.1267122,0.06451766,-0.4665939,-0.009519963,0.8569761,10.82643,29.2629,-32.34665,1001.519
0.634251118,1.070318,1.243192,0.6152992,-0.5233677,-0.006510444,0.8106545,10.82643,29.2629,-32.34665,1001.519
0.636747837,2.680995,-0.1866222,0.7375063,-0.5200005,0.02364911,0.809482,10.82643,29.2629,-32.34665,1001.519
0.639245033,1.874646,-1.794665,0.3700734,-0.4427201,0.02287814,0.8810918,10.82643,29.2629,-32.34665,1001.515
0.641741753,1.254436,-0.3051184,0.4311574,-0.4395441,0.03838892,0.9101167,10.82643,29.2629,-32.34665,1001.515
0.644238949,1.254042,1.124401,0.6146225,-0.503466,0.05689891,0.8364619,10.82643,29.2629,-32.34665,1001.515
0.646736145,0.7579516,-0.1266979,0.3084284,-0.5191625,0.05981811,0.8259416,10.82643,29.2629,-32.34665,1001.515
0.649232864,-0.7293767,-1.377403,-0.0588697,-0.4731614,0.0308205,0.8705444,10.82643,29.2629,-32.34665,1001.515
0.651730060,-1.782503,-0.9004962,-0.05885121,-0.4565554,0.004681977,0.8860064,10.82643,29.2629,-32.34665,1001.515
0.654226780,-0.976436,0.4696506,0.3083685,-0.4922188,0.001226581,0.8306429,10.82643,29.2629,-32.34665,1001.515
0.656724453,0.572923,0.1717065,0.4918723,-0.5083519,-4.829839E-06,0.8010459,10.82643,29.2629,-32.34665,1001.515
0.659221649,1.750023,-0.9004148,0.4917177,-0.4748697,0.01477217,0.8353127,10.82643,29.2629,-32.34665,1001.515
0.661718368,2.121245,-0.7810134,0.6139636,-0.4658886,0.034504,0.8800671,10.82643,29.2629,-32.34665,1001.515
0.664215565,1.315072,0.410418,0.6137707,-0.4951979,0.03371912,0.868626,10.82643,29.2629,-32.34665,1001.515
0.666712284,-0.5442039,-0.1853039,0.5523777,-0.4955581,0.02517507,0.8476699,10.82643,29.2629,-32.34665,1001.515
0.669209480,-0.4201088,-0.8999573,0.3074034,-0.4680999,0.01945442,0.8476946,10.82643,29.2629,-32.34665,1001.515
0.671706676,1.314962,-0.4232002,0.368507,-0.4629731,0.03252479,0.836612,10.82643,29.2629,-32.34665,1001.515
0.674203396,1.93417,-0.18483,0.6743922,-0.4764481,0.04941987,0.8508294,10.82643,29.2629,-32.34665,1001.515
0.676700592,1.128055,0.1130245,0.1845788,-0.4806864,0.04242604,0.8790639,11.20659,28.53305,-32.33456,1001.515
0.679198265,-0.1735036,0.05342972,0.3681214,-0.4893028,0.03130271,0.8600418,11.20659,28.53305,-32.33456,1001.518
0.681694508,-0.9169941,-0.5421801,0.3680057,-0.4838127,0.02397127,0.8476716,11.20659,28.53305,-32.33456,1001.518
0.684192181,-1.04063,-0.4228911,0.3678901,-0.465569,0.01407847,0.8410441,11.20659,28.53305,-32.33456,1001.518
0.686688900,-0.110872,-0.06540248,0.490175,-0.4752789,0.01040688,0.8362994,11.20659,28.53305,-32.33456,1001.518
0.689186096,0.9425184,0.3515332,0.7348217,-0.4984214,0.02057685,0.8352851,11.20659,28.53305,-32.33456,1001.518
0.691683292,0.8802602,0.1727448,0.5509903,-0.4880854,0.01708902,0.8482009,11.20659,28.53305,-32.33456,1001.518
0.694180012,1.437643,-0.1251059,0.6120174,-0.4725504,0.02344201,0.8624763,11.20659,28.53305,-32.33456,1001.518
0.696677208,2.428584,-0.2441852,0.6118251,-0.471504,0.046742,0.8603988,11.20659,28.53305,-32.33456,1001.518
0.699173927,1.994087,-0.2441085,0.6728331,-0.4822033,0.07185351,0.8673909,11.20659,28.53305,-32.33456,1001.518
0.701671123,0.444408,0.113324,0.5502213,-0.4832796,0.05056558,0.8747084,11.20659,28.53305,-32.33456,1001.518
0.704168320,-0.8569356,0.4110849,0.3664479,-0.4926731,0.02886713,0.8648377,11.20659,28.53305,-32.33456,1001.518
0.706665039,-1.166477,0.1131592,0.3051326,-0.4957953,0.01047035,0.8377439,11.20659,28.53305,-32.33456,1001.518
0.709162712,-0.6704136,-0.42291,0.3050367,-0.4859142,0.003789616,0.8306209,11.20659,28.53305,-32.33456,1001.518
0.711658955,0.7549251,-0.3036586,0.4273413,-0.4762537,0.01041165,0.8382106,11.20659,28.53305,-32.33456,1001.518
0.714156628,1.931968,0.4707077,0.5496074,-0.4826951,0.01686746,0.8591855,11.20659,28.53305,-32.33456,1001.518
0.716653824,1.31174,0.4110005,0.5494348,-0.493539,0.02250504,0.8624954,11.20659,28.53305,-32.33456,1001.518
0.719150543,1.125441,-0.3038402,0.5492622,-0.4897222,0.02678922,0.8500432,11.20659,28.53305,-32.33456,1001.52
0.721649170,1.620785,-0.1846261,0.6102898,-0.4776988,0.037825,0.8571224,11.20659,28.53305,-32.33456,1001.52
0.724144459,1.930086,-0.1845681,0.6100981,-0.477497,0.0538503,0.857008,11.20659,28.53305,-32.33456,1001.52
0.726641655,0.938086,-0.1249508,0.2427052,-0.4833917,0.05627317,0.8660697,10.45874,29.24648,-32.79235,1001.52
0.729138851,-0.4873367,-0.005792975,0.1202285,-0.4854001,0.03194292,0.8652892,10.45874,29.24648,-32.79235,1001.52
0.731635570,-1.354653,-0.1844691,0.2425912,-0.484183,0.01711506,0.8438994,10.45874,29.24648,-32.79235,1001.52
0.734132767,-0.7965685,-0.3035297,0.242515,-0.4853518,0.02652938,0.823771,10.45874,29.24648,-32.79235,1001.52
0.736629486,-0.1766974,-0.3629937,0.3648392,-0.48683,0.02814061,0.8376126,10.45874,29.24648,-32.79235,1001.52
0.739127159,-0.300566,-0.005523808,0.2423241,-0.4796776,0.0120904,0.8601732,10.45874,29.24648,-32.79235,1001.52
0.741624355,0.5050355,-0.005522072,0.3646484,-0.4846415,0.01631438,0.85728,10.45874,29.24648,-32.79235,1001.52
0.744121075,1.682157,-0.4819947,0.6093346,-0.4899507,0.03936828,0.8470877,10.45874,29.24648,-32.79235,1001.52
0.746618271,1.557704,-0.7796398,0.3031422,-0.4780951,0.06019376,0.8603067,10.45874,29.24648,-32.79235,1001.52
0.749115467,-0.3016481,-0.4220391,0.2418468,-0.4779137,0.05121153,0.8780443,10.45874,29.24648,-32.79235,1001.52
0.751612186,-2.036492,-0.12411,0.1193704,-0.4803017,0.01988976,0.8634616,10.45874,29.24648,-32.79235,1001.52
0.754109383,-2.159776,-0.1836303,0.4253339,-0.4892177,-0.002566997,0.8325789,10.45874,29.24648,-32.79235,1001.52
0.756606102,-0.3621971,-0.6004877,0.6700011,-0.4921985,-0.0003130734,0.8244442,10.45874,29.24648,-32.79235,1001.52
0.759103298,1.248931,-0.4811805,0.6697906,-0.4762103,0.007985162,0.8382279,10.45874,29.24648,-32.79235,1001.52
0.761600971,1.682273,-0.3023514,0.60838,-0.470059,0.02055053,0.8601072,10.45874,29.24648,-32.79235,1001.523
0.764097214,1.867631,-0.2426971,0.6693891,-0.4735965,0.02730338,0.8624494,10.45874,29.24648,-32.79235,1001.523
0.766594887,1.43331,-0.004383661,0.5467784,-0.4825664,0.03672359,0.8552225,10.45874,29.24648,-32.79235,1001.523
0.769091606,0.7512764,-0.1235009,0.4854064,-0.4901246,0.04968194,0.8560898,10.45874,29.24648,-32.79235,1001.523
0.771588802,0.007495284,-0.3616993,0.4852539,-0.4805132,0.05864669,0.8574532,10.45874,29.24648,-32.79235,1001.523
0.774085998,-0.612128,0.05532945,0.1791004,-0.477633,0.03511296,0.8719493,10.45874,29.24648,-32.79235,1001.523
0.776582718,-1.293519,0.2935493,0.1790442,-0.4893915,0.009582709,0.8697501,10.84537,28.15503,-32.39116,1001.523
0.779079914,-0.8593776,-0.06389876,0.4237887,-0.4918688,0.009622443,0.8406137,10.84537,28.15503,-32.39116,1001.523
0.781576633,0.1942479,-0.1829973,0.3624554,-0.4835976,0.01119891,0.8362987,10.84537,28.15503,-32.39116,1001.523
0.784073830,0.999694,-0.004261896,0.484742,-0.4749741,0.02120345,0.8443425,10.84537,28.15503,-32.39116,1001.523
0.786571026,1.557039,0.2339766,0.60699,-0.4746485,0.03046682,0.8466645,10.84537,28.15503,-32.39116,1001.523
0.789067745,1.990284,0.2934625,0.6067994,-0.4845505,0.0380666,0.8499597,10.84537,28.15503,-32.39116,1001.523
0.791565418,1.803773,0.05513304,0.5454085,-0.4825891,0.03883876,0.8681043,10.84537,28.15503,-32.39116,1001.523
0.794061661,0.6259263,-0.06400288,0.6064374,-0.4780813,0.03323859,0.877695,10.84537,28.15503,-32.39116,1001.523
0.796559334,-0.4895879,0.05513583,0.4226463,-0.4766139,0.0326946,0.8710107,10.84537,28.15503,-32.39116,1001.523
0.799056530,-1.232979,-0.004440792,0.1777127,-0.4768712,0.01830765,0.8486632,10.84537,28.15503,-32.39116,1001.523
0.801553249,-0.5510089,0.0551199,0.4224576,-0.4801468,0.009299031,0.8339218,10.84537,28.15503,-32.39116,1001.521
0.804050446,0.7503681,0.2933398,0.8507264,-0.4811529,0.01129653,0.8396401,10.84537,28.15503,-32.39116,1001.521
0.806547165,2.17526,0.2336883,0.7892589,-0.4833212,0.02402688,0.8510146,10.84537,28.15503,-32.39116,1001.521
0.809044361,2.298501,0.1740556,0.7890109,-0.4829592,0.03137483,0.8552608,10.84537,28.15503,-32.39116,1001.521
0.811541557,1.926007,0.05488233,0.8499632,-0.4839761,0.0338254,0.8585876,10.84537,28.15503,-32.39116,1001.521
0.814038277,1.305781,-0.2429314,0.7272958,-0.4839634,0.0333981,0.8628896,10.84537,28.15503,-32.39116,1001.521
0.816535473,0.5618253,-0.3619737,0.6658671,-0.484236,0.02123584,0.8615436,10.84537,28.15503,-32.39116,1001.521
0.819032192,0.003990009,-0.5405378,0.8492585,-0.4811614,0.01239599,0.8491856,10.84537,28.15503,-32.39116,1001.521
0.821529865,0.5616476,-0.719046,0.9713921,-0.4792756,0.01573844,0.8419957,10.84537,28.15503,-32.39116,1001.521
0.824027061,1.243054,-0.3614643,0.9710869,-0.4783615,0.01913075,0.8400604,10.84537,28.15503,-32.39116,1001.521
0.826523781,1.304626,0.05556439,0.8483815,-0.479936,0.02606737,0.8529087,11.19409,29.27811,-31.96472,1001.521
0.829020977,0.9324433,0.2937841,0.848115,-0.4785081,0.02922973,0.8691258,11.19409,29.27811,-31.96472,1001.521
0.831518173,0.3125294,0.05545463,0.9702489,-0.481788,0.02077084,0.8591571,11.19409,29.27811,-31.96472,1001.521
0.834014893,-0.1832654,-0.1232407,1.153545,-0.4872539,0.02478457,0.8414582,11.19409,29.27811,-31.96472,1001.521
0.836512089,0.4983751,0.1150352,1.275583,-0.4896855,0.02426609,0.8428963,11.19409,29.27811,-31.96472,1001.521
0.839008808,1.117839,-0.06367881,1.336382,-0.4880667,0.01613776,0.8496406,11.19409,29.27811,-31.96472,1001.521
0.841506004,1.241413,-0.301896,1.335962,-0.482668,0.01481674,0.8510799,11.19409,29.27811,-31.96472,1001.523
0.844003677,0.8692499,-0.1231233,1.457943,-0.4817766,0.01910233,0.8434061,11.19409,29.27811,-31.96472,1001.523
0.846499920,0.8689768,-0.3017625,1.579885,-0.483017,0.03420284,0.8490311,11.19409,29.27811,-31.96472,1001.523
0.848997593,0.9306659,-0.2421084,1.395789,-0.4785673,0.03203842,0.8614632,11.19409,29.27811,-31.96472,1001.523
0.851493835,0.8684115,-0.1229137,1.51775,-0.4779245,0.02328781,0.8596147,11.19409,29.27811,-31.96472,1001.523
0.853991508,1.301873,0.29404,1.333673,-0.4775521,0.02956207,0.856226,11.19409,29.27811,-31.96472,1001.523
0.856488705,1.549313,0.7704221,1.272054,-0.4719186,0.04229939,0.8556541,11.19409,29.27811,-31.96472,1001.523
0.858985424,1.053129,0.6510614,1.394055,-0.4837186,0.04699047,0.8623149,11.19409,29.27811,-31.96472,1001.523
0.861482620,0.06140488,0.6508569,1.332416,-0.4913727,0.03812573,0.8652486,11.19409,29.27811,-31.96472,1001.523
0.863979340,-1.425705,0.4719745,1.148397,-0.4835606,0.0382809,0.8642876,11.19409,29.27811,-31.96472,1001.523
0.866476536,-2.540575,0.5313855,1.025636,-0.4794506,0.02664693,0.8591139,11.19409,29.27811,-31.96472,1001.523
0.868973732,-1.858193,0.7694559,1.147714,-0.4893386,0.003625883,0.8239368,11.19409,29.27811,-31.96472,1001.523
0.871470451,0.3110638,-0.06461615,1.330954,-0.495606,-0.001453844,0.8172894,11.19409,29.27811,-31.96472,1001.523
0.873968124,2.107867,-0.7197481,1.575337,-0.4890446,0.01487554,0.8295883,11.19409,29.27811,-31.96472,1001.523
0.876464367,2.417015,-0.6599627,1.697242,-0.4731914,0.03099651,0.8476152,11.20011,28.89344,-32.78746,1001.523
0.878962040,2.106445,-0.3023996,1.635509,-0.47627,0.04100025,0.8742949,11.20011,28.89344,-32.78746,1001.523
0.881459236,0.5567311,-0.004508093,1.390194,-0.4838079,0.05241895,0.8689635,11.20011,28.89344,-32.78746,1001.528
0.883955955,-1.11642,-0.1831846,1.512158,-0.4811409,0.03923958,0.8595027,11.20011,28.89344,-32.78746,1001.528
0.886453152,-0.8682211,-0.2426863,1.511683,-0.4837822,0.02257981,0.8524581,11.20011,28.89344,-32.78746,1001.528
0.888949871,-0.0004791096,-0.2426101,1.511208,-0.4880525,0.01512206,0.8463042,11.20011,28.89344,-32.78746,1001.528
0.891447067,0.2473694,-0.3616525,1.633134,-0.4857723,0.02444677,0.8500577,11.20011,28.89344,-32.78746,1001.528
0.893944263,-0.06251877,-0.4806575,1.693821,-0.4818397,0.02368907,0.8596141,11.20011,28.89344,-32.78746,1001.528
0.896446228,-0.3723096,-0.18271,1.693289,-0.4710104,0.01906074,0.859163,11.20011,28.89344,-32.78746,1001.528
0.898938179,0.1235041,0.05558465,1.815157,-0.4744704,0.02082531,0.8515099,11.20011,28.89344,-32.78746,1001.528
0.901434898,0.4952378,0.1151265,1.814587,-0.4786617,0.03678185,0.8533091,11.20011,28.89344,-32.78746,1001.528
0.903932095,0.2472339,0.5915648,1.569216,-0.4772582,0.04081172,0.8618775,11.20011,28.89344,-32.78746,1001.528
0.906429768,-0.9301234,1.246531,1.446323,-0.4753449,0.04455365,0.8842999,11.20011,28.89344,-32.78746,1001.528
0.908926487,-1.7973,1.960851,1.201067,-0.4720041,0.04717169,0.8570524,11.20011,28.89344,-32.78746,1001.528
0.911423683,-2.974016,1.721998,1.26189,-0.4666948,0.05066498,0.8555913,11.20011,28.89344,-32.78746,1001.528
0.913920879,-3.840551,1.781016,1.445094,-0.475992,0.05079606,0.8441319,11.20011,28.89344,-32.78746,1001.528
0.916417599,-3.157761,1.48266,1.13864,-0.4864839,0.03647848,0.8432849,11.20011,28.89344,-32.78746,1001.528
0.918914795,-3.714428,1.482194,0.6486802,-0.4887877,0.03047793,0.8700783,11.20011,28.89344,-32.78746,1001.528
0.921411514,-5.572124,2.19644,0.832077,-0.4986164,0.03241727,0.8495306,11.20011,28.89344,-32.78746,1001.53
0.923908710,-6.06782,2.494237,0.8932772,-0.4865377,0.03814261,0.8227335,11.20011,28.89344,-32.78746,1001.53
0.926405907,-5.262313,2.017762,0.6484764,-0.4595314,0.03171793,0.8433031,10.47138,28.50871,-32.7795,1001.53
0.928902626,-4.456806,2.256,0.6484764,-0.4787816,0.01705459,0.8668246,10.47138,28.50871,-32.7795,1001.53
0.931400299,-2.597944,2.613355,1.199278,-0.4792992,0.01784071,0.8539223,10.47138,28.50871,-32.7795,1001.53
0.933896542,-2.040285,1.124373,0.9544774,-0.4712598,0.03378073,0.8709998,10.47138,28.50871,-32.7795,1001.53
0.936394215,-2.535981,1.183932,0.7096766,-0.4779177,0.05115354,0.8737457,10.47138,28.50871,-32.7795,1001.53
0.938891411,-3.651299,1.719966,0.832077,-0.4783434,0.04654984,0.8570606,10.47138,28.50871,-32.7795,1001.53
0.941388130,-4.890541,1.839085,0.5872762,-0.4820691,0.03564108,0.8461543,10.47138,28.50871,-32.7795,1001.53
0.943885326,-4.642692,1.779525,0.5872762,-0.4837899,0.02185611,0.8347897,10.47138,28.50871,-32.7795,1001.53
0.946385860,-3.09364,1.36261,0.8932772,-0.480649,0.01031067,0.8377362,10.47138,28.50871,-32.7795,1001.53
0.948879242,-1.60655,0.8861358,1.260478,-0.4833392,0.02437686,0.8409811,10.47138,28.50871,-32.7795,1001.53
0.951376438,-0.9869288,0.9456951,1.138078,-0.4827462,0.04633933,0.8484667,10.47138,28.50871,-32.7795,1001.53
0.953873157,-1.110853,0.7670172,1.138078,-0.4726426,0.02821766,0.8567104,10.47138,28.50871,-32.7795,1001.53
0.956370354,-1.358701,0.8265765,1.199278,-0.4828984,0.02797775,0.855285,10.47138,28.50871,-32.7795,1001.53
0.958867073,-1.296739,0.8265765,1.076878,-0.4872533,0.02540518,0.8514847,10.47138,28.50871,-32.7795,1001.53
0.961364746,-0.8010426,0.7670172,1.076878,-0.4784164,0.02322576,0.855794,10.47138,28.50871,-32.7795,1001.533
0.963861942,-0.6151563,0.8265765,1.138078,-0.4823862,0.02650014,0.852907,10.47138,28.50871,-32.7795,1001.533
0.966358662,-0.4292701,0.8265765,1.260478,-0.4888583,0.03373325,0.8595465,10.47138,28.50871,-32.7795,1001.533
0.968855858,-0.3053459,1.303051,1.138078,-0.48399,0.03606943,0.8810219,10.47138,28.50871,-32.7795,1001.533
0.971352577,-1.110853,1.779525,0.8932772,-0.4831035,0.04028414,0.8680943,10.47138,28.50871,-32.7795,1001.533
0.973849773,-2.721868,1.541288,0.7096766,-0.4862394,0.05067857,0.8517814,10.47138,28.50871,-32.7795,1001.533
0.976346970,-3.589337,1.42217,0.8932772,-0.481217,0.01525623,0.8453439,11.19409,29.27811,-31.96472,1001.533
0.978843689,-2.907754,1.183932,1.076878,-0.4928945,0.01072227,0.8157679,11.19409,29.27811,-31.96472,1001.533
0.981340885,-1.358701,0.6478986,0.9544774,-0.4869985,0.009540625,0.8267592,11.19409,29.27811,-31.96472,1001.533
0.983838558,-0.9869288,0.6478986,1.138078,-0.4833261,0.023956,0.8457608,11.19409,29.27811,-31.96472,1001.533
0.986334801,-2.78383,0.8861358,0.8932772,-0.4765251,0.0544146,0.8613024,11.19409,29.27811,-31.96472,1001.533
0.988832474,-5.324275,1.958203,0.5872762,-0.4667484,0.05416515,0.8632091,11.19409,29.27811,-31.96472,1001.533
0.991329193,-5.200351,2.732474,0.6484764,-0.480855,0.02260418,0.8495902,11.19409,29.27811,-31.96472,1001.533
0.993826389,-2.412057,1.779525,0.7708768,-0.4767721,0.01179904,0.8339021,11.19409,29.27811,-31.96472,1001.533
0.996323586,-1.110853,-0.06681301,1.015678,-0.4730921,0.02632396,0.8610231,11.19409,29.27811,-31.96472,1001.533
0.998820305,-1.60655,0.2905428,1.138078,-0.4679541,0.04139145,0.8900501,11.19409,29.27811,-31.96472,1001.533
1.001317501,-2.78383,2.077322,0.9544774,-0.4682605,0.02996138,0.8710253,11.19409,29.27811,-31.96472,1001.529
1.003814220,-2.969716,1.958203,0.6484764,-0.4775053,0.02535108,0.8318951,11.19409,29.27811,-31.96472,1001.529
1.006311417,-2.412057,1.36261,0.5872762,-0.4734891,0.02030303,0.847214,11.19409,29.27811,-31.96472,1001.529
1.008808613,-1.792436,1.303051,0.7096766,-0.4767703,0.03959389,0.8427793,11.19409,29.27811,-31.96472,1001.529
1.011305332,-1.172815,1.36261,0.7708768,-0.4891545,0.04838441,0.8303046,11.19409,29.27811,-31.96472,1001.529
1.013803005,-1.048891,1.005255,0.6484764,-0.4907054,0.05444064,0.8498465,11.19409,29.27811,-31.96472,1001.529
1.016299248,-1.668512,0.8861358,0.5872762,-0.4942381,0.03349529,0.8504758,11.19409,29.27811,-31.96472,1001.529
1.018796921,-2.721868,0.4096614,0.7096766,-0.4872782,0.02626624,0.8433583,11.19409,29.27811,-31.96472,1001.529
1.021294117,-2.845792,0.4692207,0.4648758,-0.4820727,0.03558953,0.8423334,11.19409,29.27811,-31.96472,1001.529
1.023790836,-1.60655,0.7074579,0.3424754,-0.4778632,0.01867529,0.8414963,11.19409,29.27811,-31.96472,1001.529
1.026288033,-1.110853,0.5883393,0.526076,-0.4811069,0.03606362,0.8399411,11.56131,29.27025,-32.79464,1001.529
1.028784752,-1.048891,0.7670172,0.526076,-0.4783287,0.04554059,0.8542018,11.56131,29.27025,-32.79464,1001.529
1.031281948,-1.544588,0.5883393,0.4036756,-0.489035,0.04339409,0.8561341,11.56131,29.27025,-32.79464,1001.529
1.033783436,-1.978322,0.2309835,0.220075,-0.4943305,0.03887866,0.853781,11.56131,29.27025,-32.79464,1001.529
1.036275863,-2.412057,0.1714242,0.1588748,-0.4799719,0.02860339,0.8610109,11.56131,29.27025,-32.79464,1001.529
1.038773060,-2.721868,0.3501021,0.2812752,-0.4799832,0.02905003,0.8581417,11.56131,29.27025,-32.79464,1001.529
1.041269779,-2.845792,0.8861358,-0.08592599,-0.4876809,0.0219976,0.8515093,11.56131,29.27025,-32.79464,1001.533
1.043767452,-3.40345,0.8861358,-0.3307268,-0.4891025,0.01892544,0.8419787,11.56131,29.27025,-32.79464,1001.533
1.046264648,-3.713261,0.4692207,-0.2083264,-0.4851918,0.01845974,0.8372031,11.56131,29.27025,-32.79464,1001.533
1.048761368,-2.907754,0.3501021,0.03647441,-0.4877099,0.0221865,0.8295354,11.56131,29.27025,-32.79464,1001.533
1.051258564,-1.978322,0.3501021,0.1588748,-0.4845939,0.03927119,0.8313223,11.56131,29.27025,-32.79464,1001.533
1.053755283,-2.102247,0.4692207,-0.3307268,-0.4798402,0.04789045,0.8508422,11.56131,29.27025,-32.79464,1001.533
1.056252479,-3.527375,0.8861358,-0.2695266,-0.4832341,0.04755715,0.8675649,11.56131,29.27025,-32.79464,1001.533
1.058749676,-4.58073,0.7074579,-0.6367278,-0.4839556,0.03289992,0.8619379,11.56131,29.27025,-32.79464,1001.533
1.061246395,-5.138389,0.4096614,-0.5143274,-0.4823802,0.02597619,0.8500447,11.56131,29.27025,-32.79464,1001.533
1.063743591,-5.014465,-0.1263723,-0.3307268,-0.468997,0.01508507,0.8491592,11.56131,29.27025,-32.79464,1001.533
1.066241264,-3.217564,-0.2454909,-0.1471262,-0.4634208,0.003501943,0.8454174,11.56131,29.27025,-32.79464,1001.533
1.068737507,-1.60655,0.1118649,-0.1471262,-0.4826287,0.0117181,0.8372496,11.56131,29.27025,-32.79464,1001.533
1.071235180,-1.110853,0.52878,-0.08592599,-0.4769847,0.0239959,0.8385918,11.56131,29.27025,-32.79464,1001.533
1.073731422,-0.8630047,0.3501021,-0.08592599,-0.4785016,0.02871222,0.8667412,11.56131,29.27025,-32.79464,1001.533
1.076229095,-1.234777,0.4692207,-0.1471262,-0.4833635,0.02708041,0.8615014,11.20041,28.90922,-31.9583,1001.533
1.078726291,-2.040285,0.2309835,-0.02472578,-0.4885044,0.04035106,0.8456469,11.20041,28.90922,-31.9583,1001.533
1.081223011,-2.659905,-0.1263723,-0.2695266,-0.4881372,0.04716216,0.8460756,11.20041,28.90922,-31.9583,1001.529
1.083720207,-2.597944,-0.007253703,-0.391927,-0.4805285,0.03188043,0.8528675,11.20041,28.90922,-31.9583,1001.529
1.086216926,-2.226171,0.2905428,-0.2695266,-0.4783956,0.02169254,0.850073,11.20041,28.90922,-31.9583,1001.529
1.088714123,-1.978322,0.4096614,-0.2083264,-0.4847098,0.01960192,0.8491363,11.20041,28.90922,-31.9583,1001.529
1.091211319,-1.91636,0.4692207,-0.2695266,-0.4797321,0.01435581,0.8482155,11.20041,28.90922,-31.9583,1001.529
1.093708038,-1.730474,0.2905428,-0.2083264,-0.4821128,0.01090621,0.8482414,11.20041,28.90922,-31.9583,1001.529
1.096205711,-1.234777,0.4692207,-0.1471262,-0.4906265,0.02231678,0.8438661,11.20041,28.90922,-31.9583,1001.529
1.098701954,-1.048891,0.4692207,-0.1471262,-0.4849351,0.03222608,0.849524,11.20041,28.90922,-31.9583,1001.529
1.101199627,-1.234777,0.4692207,-0.2083264,-0.4845074,0.03624783,0.8590483,11.20041,28.90922,-31.9583,1001.529
1.103696823,-1.792436,0.3501021,-0.3307268,-0.4860039,0.03820261,0.8623789,11.20041,28.90922,-31.9583,1001.529
1.106193542,-3.031678,0.3501021,-0.391927,-0.4842478,0.02167603,0.8581968,11.20041,28.90922,-31.9583,1001.529
1.108690738,-3.279526,0.6478986,-0.5143274,-0.4830777,0.01044501,0.851589,11.20041,28.90922,-31.9583,1001.529
1.111187935,-2.412057,1.064814,-0.4531272,-0.4810369,0.005032775,0.8430284,11.20041,28.90922,-31.9583,1001.529
1.113684654,-1.234777,1.243492,-0.2083264,-0.4875808,0.01550188,0.8377032,11.20041,28.90922,-31.9583,1001.529
1.116181850,-0.3053459,0.7670172,-0.08592599,-0.4903089,0.03146416,0.8375909,11.20041,28.90922,-31.9583,1001.529
1.118678570,-0.7390805,0.5883393,-0.02472578,-0.4850525,0.03969239,0.8633231,11.20041,28.90922,-31.9583,1001.529
1.121175766,-1.792436,0.5883393,-0.1471262,-0.486411,0.03386953,0.8657537,11.20041,28.90922,-31.9583,1001.53
1.123673439,-2.474019,0.8265765,-0.2695266,-0.4877082,0.02343416,0.850066,11.20041,28.90922,-31.9583,1001.53
1.126169681,-2.597944,0.52878,-0.1471262,-0.4905354,0.01691408,0.8391279,10.83275,28.89401,-32.34022,1001.53
1.128667354,-1.854398,0.5883393,-0.2083264,-0.480741,0.01570048,0.8415192,10.83275,28.89401,-32.34022,1001.53
1.131164074,-1.482626,0.8861358,-0.3307268,-0.4744742,0.0201596,0.83814,10.83275,28.89401,-32.34022,1001.53
1.133661270,-1.296739,1.303051,-0.2695266,-0.473046,0.02271425,0.845286,10.83275,28.89401,-32.34022,1001.53
1.136158466,-1.048891,1.124373,-0.4531272,-0.4828534,0.02496287,0.8476639,10.83275,28.89401,-32.34022,1001.53
1.138655185,-0.9869288,0.8861358,-0.3307268,-0.4919562,0.04284577,0.8561397,10.83275,28.89401,-32.34022,1001.53
1.141152382,-1.358701,1.124373,-0.391927,-0.4914464,0.04255783,0.8699937,10.83275,28.89401,-32.34022,1001.53
1.143649101,-2.969716,0.9456951,-0.5755276,-0.4928233,0.03707852,0.8619133,10.83275,28.89401,-32.34022,1001.53
1.146146297,-4.146996,0.5883393,-0.6367278,-0.4823644,0.02559398,0.8576901,10.83275,28.89401,-32.34022,1001.53
1.148643970,-4.332882,1.005255,-0.5143274,-0.4838506,-0.001901726,0.8373476,10.83275,28.89401,-32.34022,1001.53
1.151140213,-3.279526,1.005255,-0.3307268,-0.4927725,0.00393456,0.816294,10.83275,28.89401,-32.34022,1001.53
1.153637886,-1.482626,0.7074579,-0.4531272,-0.4850674,0.01109652,0.831046,10.83275,28.89401,-32.34022,1001.53
1.156134128,-0.4912321,0.8861358,-0.4531272,-0.4807546,0.01733679,0.8548821,10.83275,28.89401,-32.34022,1001.53
1.158631801,-0.8010426,1.064814,-0.391927,-0.4879173,0.03568256,0.8585767,10.83275,28.89401,-32.34022,1001.53
1.161128998,-1.978322,1.005255,-0.4531272,-0.4957919,0.03889869,0.8576031,10.83275,28.89401,-32.34022,1001.53
1.163625717,-3.217564,0.8265765,-0.7591282,-0.4937252,0.03325245,0.867673,10.83275,28.89401,-32.34022,1001.531
1.166122913,-5.386237,1.243492,-1.003929,-0.4785415,0.03119025,0.8705449,10.83275,28.89401,-32.34022,1001.531
1.168619633,-5.634086,1.779525,-1.003929,-0.497224,0.009131139,0.8487407,10.83275,28.89401,-32.34022,1001.531
1.171116829,-4.58073,1.005255,-1.24873,-0.4849609,0.005305175,0.8334755,10.83275,28.89401,-32.34022,1001.531
1.173614025,-4.952503,0.1118649,-0.9427288,-0.4727182,0.006076795,0.8711983,10.83275,28.89401,-32.34022,1001.531
1.176110744,-3.155602,0.9456951,-0.3307268,-0.4925576,0.019539,0.8209592,11.20011,28.89344,-32.78746,1001.531
1.178607940,-0.8630047,0.3501021,-0.5143274,-0.4831572,0.0129573,0.8219559,11.20011,28.89344,-32.78746,1001.531
1.181104660,-0.4912321,-0.1263723,-0.2695266,-0.4735074,0.02248262,0.864872,11.20011,28.89344,-32.78746,1001.531
1.183602333,-1.172815,0.5883393,-0.02472578,-0.4871972,0.02255139,0.855804,11.20011,28.89344,-32.78746,1001.531
1.186099529,-1.420663,0.7670172,-0.1471262,-0.4987013,0.008919215,0.8353685,11.20011,28.89344,-32.78746,1001.531
1.188596248,-1.110853,-0.2454909,-0.1471262,-0.4915302,0.01785078,0.8381665,11.20011,28.89344,-32.78746,1001.531
1.191093445,-0.6771184,-0.3646095,-0.2083264,-0.4813533,0.02305964,0.8481543,11.20011,28.89344,-32.78746,1001.531
1.193590641,-0.6771184,-0.1263723,-0.3307268,-0.4781751,0.03676658,0.8513983,11.20011,28.89344,-32.78746,1001.531
1.196087360,-1.172815,-0.007253703,-0.4531272,-0.4838706,0.02802117,0.860062,11.20011,28.89344,-32.78746,1001.531
1.198584556,-1.60655,-0.007253703,-0.4531272,-0.4862618,0.0250311,0.8581741,11.20011,28.89344,-32.78746,1001.531
1.201081276,-2.350095,-0.007253703,-0.8203284,-0.4853708,0.02931024,0.8500227,11.20011,28.89344,-32.78746,1001.531
1.203578472,-2.535981,-0.1263723,-0.7591282,-0.4827423,0.01862824,0.8457984,11.20011,28.89344,-32.78746,1001.531
1.206076145,-1.978322,-0.1263723,-0.6367278,-0.4832793,0.0209669,0.8400501,11.20011,28.89344,-32.78746,1001.531
1.208572388,-1.544588,-0.2454909,-0.697928,-0.4818942,0.02595447,0.8476563,11.20011,28.89344,-32.78746,1001.531
1.211070061,-1.482626,0.1714242,-0.6367278,-0.4778455,0.01893302,0.860601,11.20011,28.89344,-32.78746,1001.531
1.213566780,-1.91636,0.52878,-0.5143274,-0.4797566,0.01644519,0.8591868,11.20011,28.89344,-32.78746,1001.531
1.216063976,-1.792436,0.2309835,-0.5143274,-0.4867205,0.02239437,0.8433856,11.20011,28.89344,-32.78746,1001.531
1.218561172,-1.730474,-0.06681301,-0.5143274,-0.4837719,0.02150613,0.8448231,11.20011,28.89344,-32.78746,1001.531
1.221057892,-1.482626,0.2309835,-0.5755276,-0.4748477,0.01448017,0.8496447,11.20011,28.89344,-32.78746,1001.531
1.223555088,-1.234777,0.4692207,-0.4531272,-0.4831104,0.01180425,0.8444144,11.20011,28.89344,-32.78746,1001.531
1.226051807,-1.048891,0.2905428,-0.2083264,-0.4885568,0.01610148,0.8477305,11.19409,29.27811,-31.96472,1001.531
1.228549003,-0.8630047,0.2309835,-0.4531272,-0.4815252,0.03279135,0.8499956,11.19409,29.27811,-31.96472,1001.531
1.231046200,-1.048891,-0.007253703,-0.3307268,-0.4766779,0.03543241,0.8580942,11.19409,29.27811,-31.96472,1001.531
1.233542919,-0.9869288,-0.007253703,-0.2695266,-0.478922,0.02418584,0.8557875,11.19409,29.27811,-31.96472,1001.531
1.236040592,-1.482626,0.2309835,-0.391927,-0.4828107,0.02313767,0.8562749,11.19409,29.27811,-31.96472,1001.531
1.238536835,-2.040285,0.2309835,-0.4531272,-0.4865201,0.01185314,0.8534916,11.19409,29.27811,-31.96472,1001.531
1.241034508,-1.91636,0.3501021,-0.391927,-0.4845132,0.008394986,0.8458725,11.19409,29.27811,-31.96472,1001.531
1.243531704,-1.048891,0.4692207,-0.4531272,-0.4875573,0.01462149,0.8443968,11.19409,29.27811,-31.96472,1001.532
1.246028423,-0.367308,0.3501021,-0.1471262,-0.4867477,0.02444509,0.8514913,11.19409,29.27811,-31.96472,1001.532
1.248525619,-0.4912321,0.3501021,-0.3307268,-0.4784907,0.02703726,0.8505126,11.19409,29.27811,-31.96472,1001.532
1.251022816,-0.8630047,0.4096614,-0.391927,-0.4829522,0.03086375,0.8533539,11.19409,29.27811,-31.96472,1001.532
1.253519535,-1.234777,0.4096614,-0.391927,-0.4857123,0.02165097,0.8586755,11.19409,29.27811,-31.96472,1001.532
1.256016731,-1.544588,0.2309835,-0.391927,-0.4875408,0.01363801,0.8434485,11.19409,29.27811,-31.96472,1001.532
1.258513450,-1.358701,0.1118649,-0.2083264,-0.4923326,0.008744438,0.8482629,11.19409,29.27811,-31.96472,1001.532
1.261010647,-0.6151563,0.0523056,-0.2083264,-0.4860957,0.01521562,0.8501237,11.19409,29.27811,-31.96472,1001.532
1.263508320,-0.1814217,0.1118649,-0.3307268,-0.4813337,0.02212126,0.8505493,11.19409,29.27811,-31.96472,1001.532
1.266005039,-0.3053459,-0.007253703,-0.391927,-0.477504,0.0265923,0.8519481,11.19409,29.27811,-31.96472,1001.532
1.268502235,-0.3053459,0.1714242,-0.2695266,-0.4862731,0.02547774,0.8553049,11.19409,29.27811,-31.96472,1001.532
1.271002769,-0.4292701,0.3501021,-0.391927,-0.4891877,0.02502606,0.8624748,11.19409,29.27811,-31.96472,1001.532
1.273496151,-0.9869288,0.2309835,-0.3307268,-0.4851329,0.01625877,0.853937,11.19409,29.27811,-31.96472,1001.532
1.275993347,-1.420663,0.0523056,-0.391927,-0.4839423,0.004102251,0.8506795,11.20041,28.90922,-31.9583,1001.532
1.278490066,-1.296739,-0.06681301,-0.2695266,-0.4864315,0.005804063,0.8368165,11.20041,28.90922,-31.9583,1001.532
1.280987263,-0.6151563,0.1118649,-0.1471262,-0.486981,0.009184195,0.836315,11.20041,28.90922,-31.9583,1001.532
1.283483982,0.5001613,0.3501021,-0.02472578,-0.4846022,0.01321574,0.8434498,11.20041,28.90922,-31.9583,1001.533
1.285981178,0.5621234,0.0523056,-0.02472578,-0.4847935,0.02449999,0.852445,11.20041,28.90922,-31.9583,1001.533
1.288478851,0.06642663,0.2309835,-0.1471262,-0.4868207,0.0294978,0.8662629,11.20041,28.90922,-31.9583,1001.533
1.290975094,-0.8010426,0.1118649,-0.2083264,-0.4926225,0.02532186,0.8538768,11.20041,28.90922,-31.9583,1001.533
1.293472767,-0.9869288,-0.007253703,-0.2695266,-0.4915806,0.02078833,0.8400562,11.20041,28.90922,-31.9583,1001.533
1.295974731,-0.6151563,-0.06681301,-0.3307268,-0.4851782,0.01804532,0.8424604,11.20041,28.90922,-31.9583,1001.533
1.298466682,0.004464544,-0.1263723,-0.3307268,-0.479414,0.02350963,0.842418,11.20041,28.90922,-31.9583,1001.533
1.300963878,0.3762371,-0.007253703,-0.2695266,-0.4788955,0.0227364,0.8562755,11.20041,28.90922,-31.9583,1001.533
1.303460598,0.06642663,-0.007253703,-0.3307268,-0.4856319,0.01731551,0.8610948,11.20041,28.90922,-31.9583,1001.533
1.305957794,-0.7390805,-0.2454909,-0.4531272,-0.4846588,0.01728497,0.8572731,11.20041,28.90922,-31.9583,1001.533
1.308454513,-0.9249667,-0.3050502,-0.4531272,-0.4909138,0.01116377,0.8453789,11.20041,28.90922,-31.9583,1001.533
1.310951710,-0.3053459,-0.2454909,-0.3307268,-0.4861428,0.0169764,0.8367366,11.20041,28.90922,-31.9583,1001.533
1.313448906,0.1903508,-0.2454909,-0.2695266,-0.4813513,0.02247769,0.8409935,11.20041,28.90922,-31.9583,1001.533
1.315945625,0.5621234,-0.1263723,-0.2695266,-0.4857704,0.0250867,0.8615171,11.20041,28.90922,-31.9583,1001.533
1.318443298,-0.05749755,-0.007253703,-0.391927,-0.4935052,0.02055097,0.861554,11.20041,28.90922,-31.9583,1001.533
1.320940494,-0.7390805,-0.3646095,-0.5143274,-0.4920473,0.01925751,0.8352908,11.20041,28.90922,-31.9583,1001.533
1.323437214,-0.8630047,-0.6028467,-0.4531272,-0.4725982,0.02458218,0.8390627,11.20041,28.90922,-31.9583,1001.531
1.325934410,-0.1814217,-0.2454909,-0.5755276,-0.4666731,0.02198974,0.8534076,11.56161,29.28603,-31.96549,1001.531
1.328431129,0.1283887,0.2309835,-0.6367278,-0.4822462,0.01936244,0.8634665,11.56161,29.28603,-31.96549,1001.531
1.330928325,-0.4912321,0.0523056,-0.391927,-0.4924126,0.01430822,0.8649415,11.56161,29.28603,-31.96549,1001.531
1.333425522,-1.234777,-0.06681301,-0.391927,-0.4904431,0.01275259,0.8544429,11.56161,29.28603,-31.96549,1001.531
1.335922241,-1.358701,-0.06681301,-0.5143274,-0.4850369,0.009705064,0.8358325,11.56161,29.28603,-31.96549,1001.531
1.338419437,-0.8010426,-0.2454909,-0.391927,-0.4779061,0.02110821,0.8419566,11.56161,29.28603,-31.96549,1001.531
1.340916157,-0.1194596,0.1118649,-0.3307268,-0.4754319,0.01980149,0.8491294,11.56161,29.28603,-31.96549,1001.531
1.343413353,0.1283887,0.2905428,-0.6367278,-0.481232,0.0168732,0.857274,11.56161,29.28603,-31.96549,1001.531
1.345911026,-0.5531943,0.1714242,-0.6367278,-0.4915942,0.02242464,0.8534191,11.56161,29.28603,-31.96549,1001.531
1.348407268,-0.9249667,0.0523056,-0.5143274,-0.4930235,0.02046482,0.8543894,11.56161,29.28603,-31.96549,1001.531
1.350904941,-0.8630047,-0.007253703,-0.5755276,-0.4899922,0.01466562,0.8515629,11.56161,29.28603,-31.96549,1001.531
1.353401661,-0.6771184,-0.007253703,-0.5755276,-0.4827828,0.02048566,0.8395755,11.56161,29.28603,-31.96549,1001.531
1.355898857,-0.3053459,0.0523056,-0.391927,-0.4793615,0.02060429,0.8429164,11.56161,29.28603,-31.96549,1001.531
1.358397484,-0.2433838,0.3501021,-0.4531272,-0.4788265,0.01884758,0.8558255,11.56161,29.28603,-31.96549,1001.531
1.360892773,-0.6151563,0.4096614,-0.4531272,-0.4778098,0.01700472,0.8615701,11.56161,29.28603,-31.96549,1001.531
1.363389969,-0.8630047,0.3501021,-0.391927,-0.480333,0.02126832,0.8577198,11.56161,29.28603,-31.96549,1001.532
1.365886688,-0.9249667,0.2905428,-0.697928,-0.48502,0.00994991,0.853982,11.56161,29.28603,-31.96549,1001.532
1.368383884,-0.6771184,0.4096614,-0.5755276,-0.4850536,0.01129626,0.8458521,11.56161,29.28603,-31.96549,1001.532
1.370881557,-0.3053459,0.52878,-0.4531272,-0.4855757,0.01323983,0.8467938,11.56161,29.28603,-31.96549,1001.532
1.373377800,-0.1194596,0.4692207,-0.3307268,-0.4880663,0.0161442,0.8501182,11.56161,29.28603,-31.96549,1001.532
1.375875473,-0.3053459,0.2905428,-0.2695266,-0.4856784,0.01969689,0.8577341,11.19409,29.27811,-31.96472,1001.532
1.378372669,-0.4912321,0.3501021,-0.2695266,-0.4905938,0.02095754,0.8510407,11.19409,29.27811,-31.96472,1001.532
1.380869388,-0.6771184,0.4692207,-0.391927,-0.4890403,0.01616185,0.8529847,11.19409,29.27811,-31.96472,1001.532
1.383366585,-0.4912321,0.4692207,-0.2695266,-0.4886163,0.01951789,0.8491392,11.19409,29.27811,-31.96472,1001.532
1.385863304,-0.4292701,0.3501021,-0.2695266,-0.4871335,0.01858525,0.8496226,11.19409,29.27811,-31.96472,1001.532
1.388360500,-0.2433838,0.4692207,-0.2083264,-0.4885577,0.01608859,0.8467752,11.19409,29.27811,-31.96472,1001.532
1.390857696,0.06642663,0.2905428,-0.2083264,-0.4895764,0.0185134,0.8481916,11.19409,29.27811,-31.96472,1001.532
1.393354416,0.004464544,0.4096614,-0.1471262,-0.4906107,0.02193458,0.8515114,11.19409,29.27811,-31.96472,1001.532
1.395851612,-0.1814217,0.4692207,-0.2695266,-0.485248,0.02253542,0.851504,11.19409,29.27811,-31.96472,1001.532
1.398348331,-0.2433838,0.2905428,-0.2083264,-0.4866744,0.02000654,0.8462685,11.19409,29.27811,-31.96472,1001.532
1.400845528,-0.1194596,0.1714242,-0.1471262,-0.4904867,0.01456491,0.8448766,11.19409,29.27811,-31.96472,1001.532
1.403343201,-0.1194596,0.2309835,-0.3307268,-0.4847073,0.01902642,0.8424531,11.19409,29.27811,-31.96472,1001.528
1.405839920,-0.367308,0.1714242,-0.3307268,-0.4900443,0.01757741,0.8515422,11.19409,29.27811,-31.96472,1001.528
1.408337116,-0.05749755,0.1118649,-0.1471262,-0.4880759,0.01661661,0.8491595,11.19409,29.27811,-31.96472,1001.528
1.410833835,-0.1194596,0.2309835,-0.08592599,-0.4915096,0.01753945,0.8510657,11.19409,29.27811,-31.96472,1001.528
1.413331032,-0.1194596,0.2309835,-0.08592599,-0.492517,0.01951762,0.8553511,11.19409,29.27811,-31.96472,1001.528
1.415828228,-0.05749755,0.1118649,-0.2083264,-0.4877022,0.0229102,0.8472038,11.19409,29.27811,-31.96472,1001.528
1.418324947,-0.1814217,0.2309835,-0.1471262,-0.4851084,0.01416939,0.8429657,11.19409,29.27811,-31.96472,1001.528
1.420822143,-0.367308,0.1118649,-0.02472578,-0.4836464,0.01476996,0.8491701,11.19409,29.27811,-31.96472,1001.528
1.423318863,-0.1814217,0.1118649,-0.1471262,-0.4831676,0.01525287,0.8482111,11.19409,29.27811,-31.96472,1001.528
1.425816059,0.1283887,0.0523056,-0.2083264,-0.4855635,0.01280608,0.8506183,11.19395,29.27083,-32.34741,1001.528
1.428313732,0.06642663,-0.06681301,0.03647441,-0.4832439,0.01964632,0.8500904,11.19395,29.27083,-32.34741,1001.528
1.430809975,0.004464544,-0.06681301,0.03647441,-0.4861382,0.01765499,0.8510617,11.19395,29.27083,-32.34741,1001.528
1.433307648,-0.1814217,0.0523056,-0.2083264,-0.4866535,0.01908749,0.8500964,11.19395,29.27083,-32.34741,1001.528
1.435804844,-0.05749755,0.1118649,-0.1471262,-0.4881073,0.01921707,0.862038,11.19395,29.27083,-32.34741,1001.528
1.438301563,-0.05749755,0.1118649,-0.1471262,-0.4915552,0.01993372,0.8486603,11.19395,29.27083,-32.34741,1001.528
1.440798759,-0.367308,-0.1263723,-0.2695266,-0.4876532,0.01995332,0.8438812,11.19395,29.27083,-32.34741,1001.528
1.443295479,-0.6771184,-0.2454909,-0.3307268,-0.4821692,0.01436772,0.8529934,11.19395,29.27083,-32.34741,1001.53
1.445792675,-0.7390805,-0.06681301,-0.2695266,-0.4753364,0.01446323,0.8491674,11.19395,29.27083,-32.34741,1001.53
1.448289871,-0.367308,0.0523056,-0.2083264,-0.4748187,0.01245522,0.8434495,11.19395,29.27083,-32.34741,1001.53
1.450786590,0.06642663,0.1714242,-0.02472578,-0.4866317,0.01818133,0.8548796,11.19395,29.27083,-32.34741,1001.53
1.453283787,0.2523129,0.52878,-0.2083264,-0.4950098,0.02238977,0.8562874,11.19395,29.27083,-32.34741,1001.53
1.455780506,-0.4912321,-0.007253703,-0.2083264,-0.4907095,0.02661357,0.8385811,11.19395,29.27083,-32.34741,1001.53
1.458278179,-0.5531943,-0.2454909,-0.2695266,-0.4748148,0.03966813,0.845166,11.19395,29.27083,-32.34741,1001.53
1.460775375,-0.8010426,0.1714242,-0.391927,-0.4677232,0.027015,0.8677023,11.19395,29.27083,-32.34741,1001.53
1.463272095,-1.668512,0.2905428,-0.4531272,-0.4707918,0.007561813,0.8702313,11.19395,29.27083,-32.34741,1001.53
1.465769291,-1.792436,0.4096614,-0.4531272,-0.479861,-0.00611449,0.8426297,11.19395,29.27083,-32.34741,1001.53
1.468266487,-0.8010426,0.2309835,-0.2695266,-0.4903375,0.005726476,0.837297,11.19395,29.27083,-32.34741,1001.53
1.470763206,0.1903508,0.1714242,-0.4531272,-0.4817893,0.01952963,0.8391041,11.19395,29.27083,-32.34741,1001.53
1.473260403,0.3762371,0.2309835,-0.2083264,-0.4819297,0.02788277,0.8466872,11.19395,29.27083,-32.34741,1001.53
1.475757122,-0.2433838,0.52878,-0.391927,-0.4917309,0.0302216,0.8557519,11.56161,29.28603,-31.96549,1001.53
1.478254318,-0.8630047,0.3501021,-0.4531272,-0.4901518,0.02396359,0.8572286,11.56161,29.28603,-31.96549,1001.53
1.480751037,-1.048891,0.4692207,-0.4531272,-0.4997582,0.01506971,0.8611191,11.56161,29.28603,-31.96549,1001.53
1.483248234,-1.048891,0.3501021,-0.5143274,-0.4997561,0.01326588,0.8353381,11.56161,29.28603,-31.96549,1001.531
1.485745907,-0.5531943,-0.2454909,-0.1471262,-0.490735,0.02685403,0.8204282,11.56161,29.28603,-31.96549,1001.531
1.488242626,-0.7390805,-0.3646095,-0.5755276,-0.4571606,0.009700458,0.863043,11.56161,29.28603,-31.96549,1001.531
1.490739822,-0.9869288,0.2905428,-0.5143274,-0.4563508,-0.007630859,0.8727195,11.56161,29.28603,-31.96549,1001.531
1.493237018,-0.4292701,0.7074579,-0.1471262,-0.4870462,0.01373872,0.8501348,11.56161,29.28603,-31.96549,1001.531
1.495733738,0.314275,0.4692207,-0.02472578,-0.5077963,0.02630393,0.8428924,11.56161,29.28603,-31.96549,1001.531
1.498230934,0.4381992,0.0523056,-0.3307268,-0.4993751,0.02027673,0.8505731,11.56161,29.28603,-31.96549,1001.531
1.500727653,0.06642663,-0.06681301,-0.2695266,-0.4902105,0.02677872,0.8500436,11.56161,29.28603,-31.96549,1001.531
1.503224850,0.2523129,0.0523056,-0.2695266,-0.4894694,0.03927569,0.8394454,11.56161,29.28603,-31.96549,1001.531
1.505722046,-0.05749755,0.0523056,-0.3307268,-0.4946612,0.03015214,0.8552765,11.56161,29.28603,-31.96549,1001.531
1.508218765,-1.048891,-0.1859316,-0.697928,-0.4797076,0.0134883,0.8558642,11.56161,29.28603,-31.96549,1001.531
1.510716438,-0.9869288,-0.4241688,-0.5755276,-0.4688156,0.004880951,0.8482767,11.56161,29.28603,-31.96549,1001.531
1.513212681,-0.05749755,0.0523056,-0.5755276,-0.474218,0.007372307,0.8616366,11.56161,29.28603,-31.96549,1001.531
1.515710354,0.6860476,0.4096614,-0.391927,-0.5001979,0.01209588,0.8573192,11.56161,29.28603,-31.96549,1001.531
1.518207550,0.2523129,-0.1263723,-0.2695266,-0.506334,0.0250749,0.8214054,11.56161,29.28603,-31.96549,1001.531
1.520704269,-0.8010426,-0.8410839,-0.2695266,-0.4833237,0.02460238,0.8576977,11.56161,29.28603,-31.96549,1001.531
1.523201465,-1.234777,-0.3646095,-0.5143274,-0.4613533,-0.0009095259,0.8750628,11.56161,29.28603,-31.96549,1001.529
1.525698185,-0.6771184,0.3501021,-0.3307268,-0.4929331,-0.01149151,0.860827,11.19393,29.26961,-32.41119,1001.529
1.528195381,0.9338959,0.5883393,-0.2083264,-0.5155005,0.01793297,0.8104754,11.19393,29.26961,-32.41119,1001.529
1.530692577,2.297062,-0.7815246,-0.1471262,-0.4980683,0.05495084,0.827397,11.19393,29.26961,-32.41119,1001.529
1.533189297,0.8719338,-1.19844,-0.5755276,-0.4520149,0.05142469,0.8885362,11.19393,29.26961,-32.41119,1001.529
1.535686493,-1.358701,-0.1859316,-0.8203284,-0.4559509,0.02559008,0.8872898,11.19393,29.26961,-32.41119,1001.529
1.538184166,-2.226171,0.52878,-0.5755276,-0.5002589,0.01487879,0.8477461,11.19393,29.26961,-32.41119,1001.529
1.540680885,-0.9869288,0.2309835,-0.5143274,-0.5192327,0.008763608,0.820574,11.19393,29.26961,-32.41119,1001.529
1.543178081,-0.1814217,-0.7815246,-0.4531272,-0.4995961,0.003360198,0.820601,11.19393,29.26961,-32.41119,1001.529
1.545679092,-0.8010426,-1.317558,-0.5143274,-0.4505251,-0.006164902,0.8641077,11.19393,29.26961,-32.41119,1001.529
1.548171997,-0.2433838,-0.06681301,-0.2695266,-0.4454601,-0.01625754,0.8636991,11.19393,29.26961,-32.41119,1001.529
1.550669193,1.615479,0.8265765,-0.02472578,-0.4896786,0.02375502,0.8409892,11.19393,29.26961,-32.41119,1001.529
1.553165913,3.102569,0.7074579,-0.1471262,-0.5132311,0.05731589,0.8469733,11.19393,29.26961,-32.41119,1001.529
1.555663109,2.049214,-0.3646095,-0.4531272,-0.4996981,0.06597602,0.8555015,11.19393,29.26961,-32.41119,1001.529
1.558159828,-1.420663,-0.9006432,-0.7591282,-0.4651467,0.04823574,0.8890443,11.19393,29.26961,-32.41119,1001.529
1.560657024,-3.837185,-0.2454909,-1.065129,-0.455665,0.008954676,0.8773774,11.19393,29.26961,-32.41119,1001.529
1.563154697,-3.589337,0.3501021,-0.6367278,-0.4838604,-0.02981256,0.8198732,11.19393,29.26961,-32.41119,1001.529
1.565650940,-1.048891,0.1118649,-0.3307268,-0.4996569,-0.02223369,0.7949899,11.19393,29.26961,-32.41119,1001.53
1.568148613,1.429593,-0.06681301,-0.3307268,-0.4896466,-0.005993911,0.8311706,11.19393,29.26961,-32.41119,1001.53
1.570645332,1.677441,-0.1263723,-0.391927,-0.4799916,0.002994567,0.8702692,11.19393,29.26961,-32.41119,1001.53
1.573142528,0.6240854,0.1118649,-0.2695266,-0.477894,0.02189635,0.8644012,11.19393,29.26961,-32.41119,1001.53
1.575639725,0.6860476,0.2309835,-0.2083264,-0.4840871,0.03893815,0.841833,10.82657,29.27018,-31.96396,1001.53
1.578136444,1.305668,-0.06681301,-0.2083264,-0.4823175,0.04915208,0.840326,10.82657,29.27018,-31.96396,1001.53
1.580633640,1.243706,0.0523056,-0.2695266,-0.4817476,0.04606834,0.8627979,10.82657,29.27018,-31.96396,1001.53
1.583130360,0.314275,0.1714242,-0.4531272,-0.4877373,0.02668099,0.8748814,10.82657,29.27018,-31.96396,1001.53
1.585627556,-1.296739,0.2309835,-0.5143274,-0.4870512,0.01488973,0.8635013,10.82657,29.27018,-31.96396,1001.53
1.588124752,-1.792436,0.1118649,-0.5755276,-0.4847388,-0.006142208,0.8483647,10.82657,29.27018,-31.96396,1001.53
1.590621471,-0.9869288,0.1714242,-0.2695266,-0.4874649,-0.01853096,0.8341247,10.82657,29.27018,-31.96396,1001.53
1.580633640,1.243706,0.0523056,-0.2695266,-0.4817476,0.04606834,0.8627979,10.82657,29.27018,-31.96396,1001.53
1.583130360,0.314275,0.1714242,-0.4531272,-0.4877373,0.02668099,0.8748814,10.82657,29.27018,-31.96396,1001.53
1.585627556,-1.296739,0.2309835,-0.5143274,-0.4870512,0.01488973,0.8635013,10.82657,29.27018,-31.96396,1001.53
1.588124752,-1.792436,0.1118649,-0.5755276,-0.4847388,-0.006142208,0.8483647,10.82657,29.27018,-31.96396,1001.53
1.590621471,-0.9869288,0.1714242,-0.2695266,-0.4874649,-0.01853096,0.8341247,10.82657,29.27018,-31.96396,1001.53
1.593119144,0.7480097,0.2905428,-0.1471262,-0.4881097,-0.01042028,0.824514,10.82657,29.27018,-31.96396,1001.53
1.595618248,2.173137,0.2905428,-0.02472578,-0.4869817,0.009785471,0.8449087,10.82657,29.27018,-31.96396,1001.53
1.598113060,2.54491,0.3501021,0.1588748,-0.4883517,0.03278605,0.8605083,10.82657,29.27018,-31.96396,1001.53
1.600610256,1.801365,0.2309835,0.09767462,-0.4938412,0.03951621,0.8642848,10.82657,29.27018,-31.96396,1001.53
1.603106975,0.1283887,0.1118649,-0.2695266,-0.4902073,0.02743798,0.8629358,10.82657,29.27018,-31.96396,1001.53
1.605604172,-0.6771184,0.1118649,-0.2695266,-0.4890698,0.0175662,0.8491533,10.82657,29.27018,-31.96396,1001.533
1.608101368,-0.1814217,0.2905428,-0.02472578,-0.4903001,0.003823948,0.8401766,10.82657,29.27018,-31.96396,1001.533
1.610598087,0.8719338,0.3501021,-0.08592599,-0.4868516,0.001891854,0.8354116,10.82657,29.27018,-31.96396,1001.533
1.613095283,1.863327,0.1118649,-0.1471262,-0.4870473,0.01311167,0.8396307,10.82657,29.27018,-31.96396,1001.533
1.615592003,2.359024,0.1118649,0.1588748,-0.4915388,0.01895024,0.847712,10.82657,29.27018,-31.96396,1001.533
1.618089199,1.801365,0.1714242,0.220075,-0.4891761,0.02397171,0.8562727,10.82657,29.27018,-31.96396,1001.533
1.620586872,0.9958581,0.1118649,0.03647441,-0.4920714,0.02257522,0.86536,10.82657,29.27018,-31.96396,1001.533
1.623083115,0.3762371,0.2309835,-0.02472578,-0.4948982,0.01606158,0.8548995,10.82657,29.27018,-31.96396,1001.533
1.625580788,0.1283887,0.2309835,0.1588748,-0.4893242,0.004446232,0.8487695,11.19393,29.26961,-32.41119,1001.533
1.628077507,0.6860476,0.0523056,0.3424754,-0.4845341,0.009314034,0.8420447,11.19393,29.26961,-32.41119,1001.533
1.630574703,1.925289,0.2905428,0.220075,-0.4906527,0.02315851,0.8343068,11.19393,29.26961,-32.41119,1001.533
1.633071899,2.2351,0.4096614,-0.08592599,-0.4948124,0.03835064,0.8513968,11.19393,29.26961,-32.41119,1001.533
1.635568619,1.615479,0.2309835,-0.1471262,-0.4894076,0.03772755,0.868594,11.19393,29.26961,-32.41119,1001.533
1.638065815,0.314275,0.1118649,-0.2083264,-0.4984649,0.0254471,0.8725082,11.19393,29.26961,-32.41119,1001.533
1.640563011,-0.4912321,-0.06681301,-0.2083264,-0.4976397,0.005283363,0.8521121,11.19393,29.26961,-32.41119,1001.533
1.643059730,0.004464544,-0.4241688,-0.2083264,-0.4936363,-0.001173425,0.8349598,11.19393,29.26961,-32.41119,1001.533
1.645557403,1.05782,-0.4837281,0.03647441,-0.4865473,0.01268198,0.8429771,11.19393,29.26961,-32.41119,1001.527
1.648053646,2.173137,-0.1859316,0.09767462,-0.4775901,0.03084399,0.8433199,11.19393,29.26961,-32.41119,1001.527
1.650551319,2.173137,0.2905428,-0.1471262,-0.4848665,0.02833082,0.8485964,11.19393,29.26961,-32.41119,1001.527
1.653048515,2.049214,0.5883393,-0.1471262,-0.491655,0.02582172,0.8533949,11.19393,29.26961,-32.41119,1001.527
1.655545235,1.925289,0.2309835,-0.2083264,-0.4931867,0.02971124,0.8562341,11.19393,29.26961,-32.41119,1001.527
1.658042431,1.181744,-0.1859316,-0.3307268,-0.4927398,0.03156628,0.8490556,11.19393,29.26961,-32.41119,1001.527
1.660539150,0.5621234,-0.1263723,-0.391927,-0.4861565,0.0186127,0.8500995,11.19393,29.26961,-32.41119,1001.527
1.663036346,0.1903508,-0.007253703,-0.6367278,-0.4811267,0.0104548,0.8491994,11.19393,29.26961,-32.41119,1001.527
1.665533543,0.8099718,0.3501021,-0.5755276,-0.4855922,0.01300143,0.829122,11.19393,29.26961,-32.41119,1001.527
1.668030262,1.367631,0.0523056,-0.5143274,-0.4833908,0.02729509,0.841438,11.19393,29.26961,-32.41119,1001.527
1.670527458,1.491555,-0.1263723,-0.5143274,-0.4813304,0.02278053,0.8634416,11.19393,29.26961,-32.41119,1001.527
1.673024177,1.05782,0.1714242,-0.697928,-0.4867379,0.02458685,0.8619989,11.19393,29.26961,-32.41119,1001.527
1.675521374,0.5621234,0.0523056,-0.5755276,-0.487213,0.02293359,0.8481587,11.18777,29.64699,-31.97115,1001.527
1.678019047,0.06642663,-0.1263723,-0.5755276,-0.4842162,0.01968974,0.8548673,11.18777,29.64699,-31.97115,1001.527
1.680515766,-0.2433838,-0.1263723,-0.697928,-0.4825646,0.008980288,0.8501661,11.18777,29.64699,-31.97115,1001.527
1.683012962,-0.05749755,-0.3646095,-0.6367278,-0.4800293,0.003668769,0.8482919,11.18777,29.64699,-31.97115,1001.527
1.685510158,0.4381992,-0.4837281,-0.5143274,-0.4801371,0.009440785,0.8444294,11.18777,29.64699,-31.97115,1001.529
1.688006878,1.05782,-0.4241688,-0.5143274,-0.486225,0.02250797,0.8510271,11.18777,29.64699,-31.97115,1001.529
1.690504074,1.05782,-0.1263723,-0.2695266,-0.4890289,0.01571522,0.8558538,11.18777,29.64699,-31.97115,1001.529
1.693000793,-0.05749755,-0.4241688,-0.3307268,-0.4856368,0.01724463,0.8558409,11.18777,29.64699,-31.97115,1001.529
1.695502758,-0.9869288,-0.5432874,-0.3307268,-0.4810319,0.005717815,0.8578311,11.18777,29.64699,-31.97115,1001.529
1.697995663,0.314275,-0.1859316,-0.1471262,-0.4829427,0.00140038,0.8287255,11.18777,29.64699,-31.97115,1001.529
1.700491905,1.615479,-0.3050502,-0.2083264,-0.4902065,0.02561482,0.835722,11.18777,29.64699,-31.97115,1001.529
1.702989578,1.801365,-0.3646095,-0.08592599,-0.4849823,0.03520874,0.8547571,11.18777,29.64699,-31.97115,1001.529
1.705485821,0.9338959,-0.06681301,-0.3307268,-0.4832982,0.02436193,0.8758507,11.18777,29.64699,-31.97115,1001.529
1.707983494,-0.1814217,-0.007253703,-0.3307268,-0.4887145,0.02603938,0.8648556,11.18777,29.64699,-31.97115,1001.529
1.710480690,-0.5531943,-0.2454909,-0.2083264,-0.4924498,0.01560303,0.8529907,11.18777,29.64699,-31.97115,1001.529
1.712977409,-0.1814217,-0.1859316,-0.3307268,-0.4904762,0.01410539,0.8467906,11.18777,29.64699,-31.97115,1001.529
1.715474605,0.5001613,0.1714242,-0.3307268,-0.486556,0.01316728,0.8429736,11.18777,29.64699,-31.97115,1001.529
1.717971325,0.9338959,0.2309835,-0.2695266,-0.4869989,0.01137023,0.8544507,11.18777,29.64699,-31.97115,1001.529
1.720468521,0.9338959,0.1714242,-0.1471262,-0.4924273,0.01409559,0.8491801,11.18777,29.64699,-31.97115,1001.529
1.722965717,0.9958581,-0.007253703,-0.1471262,-0.4940135,0.0214724,0.8586817,11.18777,29.64699,-31.97115,1001.529
1.725462437,0.8099718,-0.2454909,-0.08592599,-0.489183,0.02448278,0.8581797,10.82657,29.27018,-31.96396,1001.53
1.727959633,0.06642663,-0.3050502,-0.1471262,-0.4817884,0.0207644,0.8586795,10.82657,29.27018,-31.96396,1001.53
1.730456352,-0.2433838,-0.06681301,-0.02472578,-0.4825795,0.009375379,0.8434761,10.82657,29.27018,-31.96396,1001.53
1.732954025,0.5621234,0.1118649,-0.02472578,-0.4898536,0.005672547,0.8325205,10.82657,29.27018,-31.96396,1001.53
1.735451221,2.049214,0.2309835,0.220075,-0.4910246,0.01689069,0.8381731,10.82657,29.27018,-31.96396,1001.53
1.737947941,2.2351,0.0523056,0.2812752,-0.4878677,0.03334628,0.8652807,10.82657,29.27018,-31.96396,1001.53
1.740445137,0.9958581,-0.1263723,0.03647441,-0.4870468,0.01495416,0.8682774,10.82657,29.27018,-31.96396,1001.53
1.742942333,-0.1814217,-0.1859316,0.03647441,-0.4909089,0.01123465,0.8506327,10.82657,29.27018,-31.96396,1001.53
1.745439053,-0.3053459,-0.2454909,0.03647441,-0.49037,0.00769988,0.8396713,10.82657,29.27018,-31.96396,1001.53
1.747936249,0.6240854,-0.4837281,0.03647441,-0.4841406,0.01406153,0.8334126,10.82657,29.27018,-31.96396,1001.53
1.750432968,1.367631,-0.6028467,0.1588748,-0.4810478,0.005485855,0.8406368,10.82657,29.27018,-31.96396,1001.53
1.752930164,1.863327,-0.1859316,0.3424754,-0.482062,0.007975096,0.8468293,10.82657,29.27018,-31.96396,1001.53
1.755427837,2.359024,-0.007253703,0.220075,-0.4828227,0.0229637,0.8433792,10.82657,29.27018,-31.96396,1001.53
1.757924080,2.54491,-0.3050502,0.1588748,-0.4900008,0.04292,0.8585263,10.82657,29.27018,-31.96396,1001.53
1.760421753,1.677441,-0.662406,-0.02472578,-0.4840848,0.04080642,0.8723902,10.82657,29.27018,-31.96396,1001.53
1.762918472,-0.05749755,-0.6028467,-0.2083264,-0.4838626,0.02813715,0.8686591,10.82657,29.27018,-31.96396,1001.53
1.765415668,-1.172815,-0.7219653,-0.08592599,-0.4832262,0.01868217,0.850575,10.82657,29.27018,-31.96396,1001.532
1.767912865,-1.048891,-0.7219653,-0.08592599,-0.478553,0.002031759,0.8325398,10.82657,29.27018,-31.96396,1001.532
1.770409584,0.1283887,-0.7219653,-0.08592599,-0.481983,0.002398427,0.8291956,10.82657,29.27018,-31.96396,1001.532
1.772906780,0.9958581,-0.6028467,-0.08592599,-0.4802304,0.01481127,0.8467795,10.82657,29.27018,-31.96396,1001.532
1.775403500,1.119782,-0.4837281,-0.2083264,-0.4813262,0.0222308,0.8586688,11.20041,28.90922,-31.9583,1001.532
1.777900696,0.8099718,-0.5432874,-0.1471262,-0.4794059,0.02423977,0.8605641,11.20041,28.90922,-31.9583,1001.532
1.780397892,0.1903508,-0.4837281,-0.1471262,-0.4805263,0.03191264,0.8552556,11.20041,28.90922,-31.9583,1001.532
1.782894611,-0.367308,-0.7219653,-0.2083264,-0.4775227,0.02754356,0.8505084,11.20041,28.90922,-31.9583,1001.532
1.785392284,-0.5531943,-0.662406,0.09767462,-0.4779013,0.02117909,0.8472104,11.20041,28.90922,-31.9583,1001.532
1.787889481,-0.3053459,-0.3050502,-0.08592599,-0.4767948,0.0139142,0.8467839,11.20041,28.90922,-31.9583,1001.532
1.790386200,-0.3053459,-0.5432874,-0.08592599,-0.4780432,0.001743823,0.8463938,11.20041,28.90922,-31.9583,1001.532
1.792883396,0.3762371,-0.6028467,0.03647441,-0.4795553,0.00469497,0.8516279,11.20041,28.90922,-31.9583,1001.532
1.795380115,0.7480097,-0.2454909,-0.02472578,-0.4792966,0.01787937,0.856788,11.20041,28.90922,-31.9583,1001.532
1.797877312,0.3762371,-0.4241688,-0.08592599,-0.4852182,0.02174523,0.8648842,11.20041,28.90922,-31.9583,1001.532
1.800374508,-0.2433838,-0.3646095,0.03647441,-0.4993823,0.02139552,0.8615514,11.20041,28.90922,-31.9583,1001.532
1.802871227,-0.3053459,-0.5432874,-0.02472578,-0.5019577,0.02673486,0.8295113,11.20041,28.90922,-31.9583,1001.532
1.805368423,0.004464544,-0.8410839,-0.02472578,-0.4933343,0.03673941,0.8375551,11.20041,28.90922,-31.9583,1001.53
1.807865143,0.06642663,-1.317558,-0.1471262,-0.4682724,0.02978741,0.8581296,11.20041,28.90922,-31.9583,1001.53
1.810362339,-0.8010426,-0.9006432,-0.2695266,-0.4563458,0.01898721,0.86632,11.20041,28.90922,-31.9583,1001.53
1.812860012,-0.8010426,-0.3646095,-0.2083264,-0.4635952,0.01380916,0.8539419,11.20041,28.90922,-31.9583,1001.53
1.815356731,-0.4292701,-0.4837281,-0.1471262,-0.4840988,0.01222343,0.8410683,11.20041,28.90922,-31.9583,1001.53
1.817853928,-0.3053459,-0.662406,-0.2083264,-0.4866234,0.01768959,0.8544054,11.20041,28.90922,-31.9583,1001.53
1.820350647,-0.2433838,-0.4241688,-0.1471262,-0.4909421,0.01380933,0.8616006,11.20041,28.90922,-31.9583,1001.53
1.822847843,-0.4292701,-0.6028467,0.1588748,-0.493475,0.0167093,0.8286225,11.20041,28.90922,-31.9583,1001.53
1.825345039,-0.6771184,-1.079321,0.09767462,-0.4745093,0.02209435,0.8376485,11.20025,28.90072,-32.40477,1001.53
1.827841759,-0.05749755,-0.7219653,-0.2083264,-0.467963,0.01227162,0.8549107,11.20025,28.90072,-32.40477,1001.53
1.830338955,0.1903508,-0.4241688,0.03647441,-0.4772781,0.01458874,0.861587,11.20025,28.90072,-32.40477,1001.53
1.832835674,0.4381992,-0.1263723,-0.1471262,-0.4874098,0.03474824,0.8604938,11.20025,28.90072,-32.40477,1001.53
1.835332870,0.314275,-0.4837281,-0.3307268,-0.4925368,0.04699675,0.8408251,11.20025,28.90072,-32.40477,1001.53
1.837830543,-1.482626,-1.13888,-0.2083264,-0.4777694,0.04230221,0.8652108,11.20025,28.90072,-32.40477,1001.53
1.840326786,-2.845792,-0.9602025,-0.3307268,-0.4579082,-0.002279003,0.8760259,11.20025,28.90072,-32.40477,1001.53
1.842824459,-2.659905,-0.1263723,-0.4531272,-0.4828812,-0.02853101,0.8413584,11.20025,28.90072,-32.40477,1001.53
1.845324039,-1.110853,-0.3050502,-0.02472578,-0.5167659,-0.02102945,0.8035892,11.20025,28.90072,-32.40477,1001.533
1.847818375,1.429593,-0.9602025,0.03647441,-0.5016133,0.006670158,0.8172349,11.20025,28.90072,-32.40477,1001.533
1.850315571,2.2351,-0.9602025,0.03647441,-0.469266,0.03074344,0.858601,11.20025,28.90072,-32.40477,1001.533
1.852812290,1.181744,-0.662406,0.09767462,-0.4642353,0.05158939,0.8842432,11.20025,28.90072,-32.40477,1001.533
1.855309486,-0.5531943,-0.2454909,-0.08592599,-0.4854752,0.03757757,0.8872216,11.20025,28.90072,-32.40477,1001.533
1.857806683,-1.91636,-0.1263723,-0.391927,-0.497955,0.0227154,0.8491218,11.20025,28.90072,-32.40477,1001.533
1.860303402,-2.102247,-0.9006432,-0.2695266,-0.4935745,0.02198958,0.8242859,11.20025,28.90072,-32.40477,1001.533
1.862800598,-0.6151563,-1.019762,-0.3307268,-0.4680397,0.01543674,0.8376922,11.20025,28.90072,-32.40477,1001.533
1.865297317,-0.1814217,-0.5432874,-0.1471262,-0.4693832,0.009832953,0.856362,11.20025,28.90072,-32.40477,1001.533
1.867794991,-0.7390805,-0.007253703,0.03647441,-0.4867308,-0.003079142,0.8626739,11.20025,28.90072,-32.40477,1001.533
1.870292187,-0.6771184,0.1714242,0.1588748,-0.5021762,-0.01485416,0.8422275,11.20025,28.90072,-32.40477,1001.533
1.872788906,-0.1194596,-0.662406,0.2812752,-0.4902829,0.00223919,0.8306345,11.20025,28.90072,-32.40477,1001.533
1.875286102,0.9338959,-0.4837281,0.1588748,-0.4846425,0.01568733,0.8467758,11.20041,28.90922,-31.9583,1001.533
1.877783298,1.181744,-0.4837281,0.2812752,-0.4883134,0.02967453,0.8457229,11.20041,28.90922,-31.9583,1001.533
1.880280018,0.5621234,-0.5432874,0.3424754,-0.4861047,0.04346355,0.8566095,11.20041,28.90922,-31.9583,1001.533
1.882777214,0.1903508,-0.2454909,-0.02472578,-0.4819145,0.02871601,0.8724752,11.20041,28.90922,-31.9583,1001.533
1.885273933,-0.3053459,-0.2454909,0.03647441,-0.4931077,0.02535646,0.8572205,11.20041,28.90922,-31.9583,1001.535
1.887771130,-1.048891,-0.8410839,0.09767462,-0.4883078,0.02914413,0.842383,11.20041,28.90922,-31.9583,1001.535
1.890268803,-1.048891,-1.019762,-0.1471262,-0.4703504,0.008725372,0.8477725,11.20041,28.90922,-31.9583,1001.535
1.892765045,-0.5531943,-0.3646095,-0.08592599,-0.476082,0.001901818,0.8549895,11.20041,28.90922,-31.9583,1001.535
1.895263195,0.1283887,0.1118649,0.1588748,-0.4941264,-0.001209701,0.8330497,11.20041,28.90922,-31.9583,1001.535
1.897759438,0.4381992,-0.3646095,0.4036756,-0.4991727,0.007931675,0.8348981,11.20041,28.90922,-31.9583,1001.535
1.900256634,0.9958581,-0.5432874,0.4648758,-0.4826058,0.01143899,0.8525369,11.20041,28.90922,-31.9583,1001.535
1.902753830,1.367631,-0.4837281,0.2812752,-0.4794551,0.0265825,0.8543378,11.20041,28.90922,-31.9583,1001.535
1.905250549,0.8099718,-0.4837281,0.220075,-0.4850938,0.04153693,0.856145,11.20041,28.90922,-31.9583,1001.535
1.907747745,0.1283887,-0.3646095,0.220075,-0.4898536,0.03466351,0.8581074,11.20041,28.90922,-31.9583,1001.535
1.910244465,-0.367308,-0.662406,-0.02472578,-0.4892057,0.02537605,0.8524414,11.20041,28.90922,-31.9583,1001.535
1.912741661,-0.6151563,-0.9602025,0.09767462,-0.4803306,0.02069282,0.8510366,11.20041,28.90922,-31.9583,1001.535
1.915238857,-0.4912321,-0.7219653,0.03647441,-0.4791687,0.009953533,0.8449029,11.20041,28.90922,-31.9583,1001.535
1.917735577,-0.6771184,-0.6028467,0.1588748,-0.4834914,0.006015283,0.8477995,11.20041,28.90922,-31.9583,1001.535
1.920233250,-0.6771184,-0.5432874,0.2812752,-0.4891532,-0.005298368,0.845973,11.20041,28.90922,-31.9583,1001.535
1.922729492,0.004464544,-0.662406,0.3424754,-0.4867379,-0.00440412,0.8364118,11.20041,28.90922,-31.9583,1001.535
1.925227165,0.8099718,-0.662406,0.4036756,-0.4772146,0.01000844,0.8458567,10.82657,29.27018,-31.96396,1001.532
1.927724361,1.367631,-0.4241688,0.4036756,-0.4735956,0.02731626,0.8634047,10.82657,29.27018,-31.96396,1001.532
1.930221081,1.05782,-0.2454909,0.1588748,-0.4864635,0.03677487,0.8652554,10.82657,29.27018,-31.96396,1001.532
1.932718277,0.1903508,-0.4241688,0.03647441,-0.4889925,0.04095472,0.8551961,10.82657,29.27018,-31.96396,1001.532
1.935215473,-0.4292701,-0.7219653,0.03647441,-0.4805205,0.03199641,0.8614647,10.82657,29.27018,-31.96396,1001.532
1.937712193,-0.8630047,-0.7219653,0.1588748,-0.4818045,0.02175433,0.8601055,10.82657,29.27018,-31.96396,1001.532
1.940209389,-1.60655,-0.662406,-0.02472578,-0.4903255,0.005900445,0.8501927,10.82657,29.27018,-31.96396,1001.532
1.942706108,-1.60655,-0.4837281,0.03647441,-0.4871196,-0.009591807,0.8483907,10.82657,29.27018,-31.96396,1001.532
1.945203304,-0.2433838,-0.4837281,0.220075,-0.4837009,-0.01073372,0.8302456,10.82657,29.27018,-31.96396,1001.532
1.947700977,1.05782,-0.5432874,0.3424754,-0.4841224,0.01310382,0.8343747,10.82657,29.27018,-31.96396,1001.532
1.950197220,1.925289,-0.3050502,0.2812752,-0.4815076,0.03243492,0.8595515,10.82657,29.27018,-31.96396,1001.532
1.952694893,1.553517,-0.2454909,0.1588748,-0.4821663,0.04278962,0.872375,10.82657,29.27018,-31.96396,1001.532
1.955191612,0.1903508,-0.5432874,0.09767462,-0.4895501,0.04544075,0.8647177,10.82657,29.27018,-31.96396,1001.532
1.957688808,-0.8010426,-0.5432874,-0.08592599,-0.4888835,0.03520203,0.8604914,10.82657,29.27018,-31.96396,1001.532
1.960186005,-1.048891,-0.7815246,-0.08592599,-0.4813702,0.02403668,0.848625,10.82657,29.27018,-31.96396,1001.532
1.962682724,-0.9249667,-0.5432874,0.03647441,-0.4859812,0.008318372,0.8425303,10.82657,29.27018,-31.96396,1001.532
1.965179920,-0.367308,-0.4837281,0.2812752,-0.4897815,0.00182883,0.8354138,10.82657,29.27018,-31.96396,1001.532
1.967677116,0.1283887,-0.06681301,0.1588748,-0.4858292,0.0001327572,0.8473652,10.82657,29.27018,-31.96396,1001.532
1.970173836,0.5001613,-0.2454909,0.2812752,-0.4860249,0.01135258,0.8515843,10.82657,29.27018,-31.96396,1001.532
1.972671509,0.8719338,-0.6028467,0.2812752,-0.4832682,0.02112798,0.8519905,10.82657,29.27018,-31.96396,1001.532
1.975167751,1.181744,-0.4241688,0.3424754,-0.481115,0.03716953,0.8499641,10.83273,28.8928,-32.404,1001.532
1.977665424,0.8099718,-0.3646095,0.1588748,-0.4821422,0.04069379,0.8609259,10.83273,28.8928,-32.404,1001.532
1.980162621,0.004464544,-0.1263723,-0.02472578,-0.4838966,0.02947706,0.8600516,10.83273,28.8928,-32.404,1001.532
1.982659340,-0.6151563,-0.3646095,0.1588748,-0.4851291,0.0157026,0.8486867,10.83273,28.8928,-32.404,1001.532
1.985156536,-0.6151563,-0.4241688,-0.1471262,-0.4846452,0.01564867,0.8439102,10.83273,28.8928,-32.404,1001.532
1.987653255,0.1283887,-0.3050502,-0.2083264,-0.4860983,0.01517696,0.847258,10.83273,28.8928,-32.404,1001.532
1.990150452,0.8719338,-0.1263723,0.03647441,-0.4860523,0.01278914,0.850141,10.83273,28.8928,-32.404,1001.532
1.992647648,0.8719338,-0.3050502,0.1588748,-0.4803471,0.0216763,0.8519849,10.83273,28.8928,-32.404,1001.532
1.995144367,0.5001613,-0.1263723,0.09767462,-0.4818318,0.02319089,0.8586622,10.83273,28.8928,-32.404,1001.532
1.997641563,0.2523129,-0.1859316,0.09767462,-0.484863,0.02838237,0.8524173,10.83273,28.8928,-32.404,1001.532
2.000138283,0.4381992,-0.1263723,-0.02472578,-0.483822,0.02505784,0.8562618,10.83273,28.8928,-32.404,1001.532
2.002635479,0.2523129,-0.1859316,0.03647441,-0.4842972,0.02340459,0.8424216,10.83273,28.8928,-32.404,1001.532
2.005133152,0.06642663,-0.1859316,0.09767462,-0.4861256,0.01722769,0.8553637,10.83273,28.8928,-32.404,1001.532
2.007629871,0.06642663,-0.2454909,0.03647441,-0.4835526,0.009405918,0.8472977,10.83273,28.8928,-32.404,1001.529
2.010127068,0.2523129,-0.2454909,0.03647441,-0.4829701,0.004058825,0.8459026,10.83273,28.8928,-32.404,1001.529
2.012624264,0.5621234,-0.2454909,0.09767462,-0.4825417,0.007479295,0.8468332,10.83273,28.8928,-32.404,1001.529
2.015120983,1.05782,-0.3050502,0.09767462,-0.4786985,0.01153591,0.8534893,10.83273,28.8928,-32.404,1001.529
2.017618179,0.8719338,-0.1859316,0.220075,-0.4837052,0.01880697,0.8606053,10.83273,28.8928,-32.404,1001.529
2.020114899,0.5001613,-0.1859316,0.2812752,-0.4838614,0.02754232,0.8605431,10.83273,28.8928,-32.404,1001.529
2.022612095,0.5621234,-0.2454909,0.526076,-0.479348,0.02018987,0.8481736,10.83273,28.8928,-32.404,1001.529
2.025109768,0.6860476,-0.1859316,0.4036756,-0.477372,0.01933862,0.8539105,11.19409,29.27811,-31.96472,1001.529
2.027606010,0.8719338,-0.2454909,0.2812752,-0.4853239,0.0269353,0.8538609,11.19409,29.27811,-31.96472,1001.529
2.030103683,0.5621234,-0.1859316,0.2812752,-0.4848634,0.02837592,0.8519397,11.19409,29.27811,-31.96472,1001.529
2.032599926,0.5001613,-0.1263723,0.3424754,-0.4773823,0.0204123,0.8615455,11.19409,29.27811,-31.96472,1001.529
2.035097599,0.314275,-0.3646095,0.526076,-0.4812095,0.01536576,0.8534634,11.19409,29.27811,-31.96472,1001.529
2.037594795,0.3762371,-0.2454909,0.4648758,-0.4846074,0.01375258,0.8472673,11.19409,29.27811,-31.96472,1001.529
2.040091514,0.6860476,-0.1263723,0.4036756,-0.4831224,0.01285216,0.8501388,11.19409,29.27811,-31.96472,1001.529
2.042588711,1.05782,-0.1859316,0.3424754,-0.4831841,0.01623635,0.8491594,11.19409,29.27811,-31.96472,1001.529
2.045085907,1.243706,0.0523056,0.526076,-0.480226,0.0148757,0.8515557,11.19409,29.27811,-31.96472,1001.529
2.047582626,1.243706,-0.06681301,0.4648758,-0.4837395,0.0207546,0.8610691,11.19409,29.27811,-31.96472,1001.532
2.050079822,0.9338959,-0.2454909,0.3424754,-0.4847526,0.02264901,0.8591455,11.19409,29.27811,-31.96472,1001.532
2.052576542,0.8719338,-0.1859316,0.4648758,-0.48379,0.023078,0.8534099,11.19409,29.27811,-31.96472,1001.532
2.055073738,0.7480097,-0.1263723,0.4648758,-0.4866152,0.01719785,0.8539312,11.19409,29.27811,-31.96472,1001.532
2.057571411,0.6860476,-0.1263723,0.4036756,-0.4753008,0.01253493,0.8501365,11.19409,29.27811,-31.96472,1001.532
2.060068130,0.8719338,-0.007253703,0.526076,-0.479722,0.01388984,0.8496518,11.19409,29.27811,-31.96472,1001.532
2.062565326,1.305668,-0.06681301,0.5872762,-0.4822152,0.01675554,0.8501104,11.19409,29.27811,-31.96472,1001.532
2.065062046,1.429593,0.1118649,0.3424754,-0.483333,0.02446707,0.8476678,11.19409,29.27811,-31.96472,1001.532
2.067559242,1.243706,-0.007253703,0.4036756,-0.4790458,0.03094779,0.8533509,11.19409,29.27811,-31.96472,1001.532
2.070056438,0.8719338,-0.1263723,0.4036756,-0.4842834,0.02360434,0.8572277,11.19409,29.27811,-31.96472,1001.532
2.072553158,0.5001613,-0.007253703,0.4648758,-0.4866524,0.01971455,0.8606006,11.19409,29.27811,-31.96472,1001.532
2.075050354,0.5001613,0.2309835,0.4036756,-0.4847654,0.02246216,0.8452946,10.83273,28.8928,-32.404,1001.532
2.077547073,0.9338959,0.2309835,0.4648758,-0.4836624,0.01575988,0.8505961,10.83273,28.8928,-32.404,1001.532
2.080044269,1.05782,0.2905428,0.4036756,-0.4793128,0.01825513,0.8486651,10.83273,28.8928,-32.404,1001.532
2.082545280,1.181744,0.2905428,0.4648758,-0.4847414,0.02158821,0.8524658,10.83273,28.8928,-32.404,1001.532
2.085038185,1.05782,0.1714242,0.3424754,-0.4862197,0.02258528,0.8567585,10.83273,28.8928,-32.404,1001.532
2.087535858,0.9338959,0.1714242,0.4036756,-0.481417,0.02702578,0.8543357,10.83273,28.8928,-32.404,1001.534
2.090032577,0.9958581,0.1118649,0.5872762,-0.4809543,0.02849862,0.8548026,10.83273,28.8928,-32.404,1001.534
2.092529774,0.6240854,0.1714242,0.4036756,-0.4809832,0.03052357,0.8609978,10.83273,28.8928,-32.404,1001.534
2.095026970,0.3762371,0.2905428,0.3424754,-0.4779659,0.02513234,0.8524365,10.83273,28.8928,-32.404,1001.534
2.097523689,0.3762371,0.4096614,0.2812752,-0.4802776,0.01779393,0.8520126,10.83273,28.8928,-32.404,1001.534
2.100020885,0.314275,0.52878,0.1588748,-0.4827029,0.01736565,0.8601373,10.83273,28.8928,-32.404,1001.534
2.102518081,0.4381992,0.4692207,0.03647441,-0.4793048,0.01837111,0.8572622,10.83273,28.8928,-32.404,1001.534
2.105014801,0.8719338,0.52878,0.4648758,-0.4793359,0.01914196,0.8424491,10.83273,28.8928,-32.404,1001.534
2.107511997,0.8719338,0.2905428,0.4036756,-0.4861656,0.01909155,0.8496184,10.83273,28.8928,-32.404,1001.534
2.110008716,0.7480097,0.4692207,0.2812752,-0.4818528,0.02410993,0.8548344,10.83273,28.8928,-32.404,1001.534
2.112506389,0.9338959,0.4692207,0.2812752,-0.4823537,0.02452674,0.8505328,10.83273,28.8928,-32.404,1001.534
2.115003586,0.8719338,0.52878,0.4036756,-0.4861703,0.01963484,0.8539135,10.83273,28.8928,-32.404,1001.534
2.117500305,0.8099718,0.3501021,0.4036756,-0.4861282,0.01718903,0.852498,10.83273,28.8928,-32.404,1001.534
2.119997501,0.8099718,0.2905428,0.3424754,-0.4852562,0.02302716,0.8519782,10.83273,28.8928,-32.404,1001.534
2.122494221,0.9958581,0.1118649,0.4036756,-0.4808345,0.02167869,0.8529405,10.83273,28.8928,-32.404,1001.534
2.124991417,0.7480097,0.4096614,0.3424754,-0.4817379,0.01721913,0.8477185,11.20011,28.89344,-32.78746,1001.534
2.127488613,0.8719338,0.3501021,0.4036756,-0.4808063,0.02025501,0.8553389,11.20011,28.89344,-32.78746,1001.531
2.129985332,0.8099718,0.1118649,0.3424754,-0.4817933,0.02069353,0.8534257,11.20011,28.89344,-32.78746,1001.531
2.132482528,0.4381992,0.2309835,0.4648758,-0.4794143,0.02411735,0.8514893,11.20011,28.89344,-32.78746,1001.531
2.134979248,0.314275,0.3501021,0.5872762,-0.4821787,0.01484013,0.8520347,11.20011,28.89344,-32.78746,1001.531
2.137476444,0.3762371,0.3501021,0.526076,-0.4841598,0.01622823,0.8501154,11.20011,28.89344,-32.78746,1001.531
2.139974117,0.5001613,0.1714242,0.526076,-0.4796924,0.01248549,0.8534831,11.20011,28.89344,-32.78746,1001.531
2.142470836,0.4381992,0.2905428,0.4648758,-0.4821727,0.01431617,0.8491725,11.20011,28.89344,-32.78746,1001.531
2.144968033,0.6240854,-0.007253703,0.6484764,-0.485195,0.01963652,0.85248,11.20011,28.89344,-32.78746,1001.531
2.147465229,0.8099718,0.4096614,0.4648758,-0.479848,0.02061956,0.8448272,11.20011,28.89344,-32.78746,1001.531
2.149961948,0.8719338,0.2905428,0.526076,-0.4779108,0.0216515,0.8462517,11.20011,28.89344,-32.78746,1001.531
2.152459144,0.9338959,0.0523056,0.5872762,-0.4822907,0.02116188,0.852945,11.20011,28.89344,-32.78746,1001.531
2.154955864,0.6860476,0.2309835,0.526076,-0.4861763,0.0201588,0.8567758,11.20011,28.89344,-32.78746,1001.531
2.157453060,0.4381992,0.1714242,0.526076,-0.4818116,0.02165123,0.8524636,11.20011,28.89344,-32.78746,1001.531
2.159950256,0.5621234,0.1118649,0.526076,-0.4847058,0.01965991,0.8534349,11.20011,28.89344,-32.78746,1001.531
2.162446976,0.3762371,0.2905428,0.5872762,-0.4807359,0.01638552,0.8563219,11.20011,28.89344,-32.78746,1001.531
2.164944649,0.314275,0.4096614,0.6484764,-0.4783131,0.0173893,0.8548803,11.20011,28.89344,-32.78746,1001.531
2.169938564,0.7480097,0.3501021,0.526076,-0.4857271,0.02082417,0.8333653,11.20011,28.89344,-32.78746,1001.533
2.169938564,0.7480097,0.3501021,0.526076,-0.4857271,0.02082417,0.8333653,11.20011,28.89344,-32.78746,1001.533
2.174932480,1.429593,0.3501021,0.526076,-0.4830983,0.0397473,0.8642768,11.19409,29.27811,-31.96472,1001.533
2.174932480,1.429593,0.3501021,0.526076,-0.4830983,0.0397473,0.8642768,11.19409,29.27811,-31.96472,1001.533
2.177429676,0.5001613,0.2905428,0.4036756,-0.4820276,0.03441071,0.8628813,11.19409,29.27811,-31.96472,1001.533
2.179926395,-0.1814217,0.1714242,0.4648758,-0.4770776,0.03059471,0.8600397,11.19409,29.27811,-31.96472,1001.533
2.184920788,-0.2433838,0.4692207,0.220075,-0.4850827,0.01270705,0.8424984,11.19409,29.27811,-31.96472,1001.533
2.187417507,0.314275,0.3501021,0.4036756,-0.4787189,0.0124614,0.850139,11.19409,29.27811,-31.96472,1001.533
2.189914703,0.5621234,0.52878,0.4036756,-0.4860565,0.01333887,0.8549138,11.19409,29.27811,-31.96472,1001.533
2.189914703,0.5621234,0.52878,0.4036756,-0.4860565,0.01333887,0.8549138,11.19409,29.27811,-31.96472,1001.533
2.194909096,0.8719338,0.4692207,0.3424754,-0.4837822,0.02257981,0.8524581,11.19409,29.27811,-31.96472,1001.533
2.197406292,0.6860476,0.4692207,0.3424754,-0.4838026,0.0235053,0.8491079,11.19409,29.27811,-31.96472,1001.533
2.199903011,0.5001613,0.4096614,0.2812752,-0.4868107,0.02780995,0.849079,11.19409,29.27811,-31.96472,1001.533
2.202400207,0.5001613,0.4096614,0.1588748,-0.4863288,0.02833797,0.8514633,11.19409,29.27811,-31.96472,1001.533
2.204897404,0.5621234,0.3501021,0.4036756,-0.4794195,0.02465419,0.8553067,11.19409,29.27811,-31.96472,1001.533
2.207394123,0.1283887,0.2905428,0.526076,-0.4788728,0.02184312,0.8620138,11.19409,29.27811,-31.96472,1001.525
2.209891319,-0.3053459,0.2905428,0.4036756,-0.4847514,0.02205418,0.8510295,11.19409,29.27811,-31.96472,1001.525
2.212388038,-0.2433838,0.0523056,0.3424754,-0.4857149,0.02039042,0.8371896,11.19409,29.27811,-31.96472,1001.525
2.214885235,0.314275,0.0523056,0.4036756,-0.4793994,0.02250038,0.8395592,11.19409,29.27811,-31.96472,1001.525
2.217382908,0.8719338,0.2309835,0.2812752,-0.4793878,0.0226679,0.8519773,11.19409,29.27811,-31.96472,1001.525
2.217382908,0.8719338,0.2309835,0.2812752,-0.4793878,0.0226679,0.8519773,11.19409,29.27811,-31.96472,1001.525
2.222376823,0.06642663,0.0523056,0.3424754,-0.4853855,0.0303195,0.8528815,11.19409,29.27811,-31.96472,1001.525
2.224874019,-0.3053459,-0.06681301,0.220075,-0.4829228,0.02884525,0.8476363,11.18777,29.64699,-31.97115,1001.525
2.227370739,-0.2433838,0.1118649,0.09767462,-0.4788176,0.01775456,0.8467577,11.18777,29.64699,-31.97115,1001.525
2.229867935,-0.05749755,-0.007253703,0.220075,-0.4769287,0.02114211,0.8429111,11.18777,29.64699,-31.97115,1001.525
2.232364654,0.3762371,0.2309835,0.2812752,-0.4783044,0.01690401,0.8548838,11.18777,29.64699,-31.97115,1001.525
2.234861851,0.1283887,-0.007253703,0.220075,-0.4823502,0.02457829,0.8543537,11.18777,29.64699,-31.97115,1001.525
2.237359047,0.06642663,-0.06681301,0.220075,-0.4843074,0.02447828,0.8500565,11.18777,29.64699,-31.97115,1001.525
2.239855766,-0.1194596,-0.1859316,0.3424754,-0.4816622,0.01342696,0.8544329,11.18777,29.64699,-31.97115,1001.525
2.242352962,-0.1814217,0.0523056,0.4036756,-0.4817427,0.01714825,0.8424647,11.18777,29.64699,-31.97115,1001.525
2.244849682,0.314275,-0.007253703,0.2812752,-0.4788806,0.02111942,0.8443454,11.18777,29.64699,-31.97115,1001.525
2.247347355,0.6240854,-0.3646095,0.4648758,-0.4780861,0.03194583,0.8538209,11.18777,29.64699,-31.97115,1001.527
2.249844551,0.5621234,-0.1859316,0.526076,-0.4790258,0.03001585,0.8562236,11.18777,29.64699,-31.97115,1001.527
2.252341270,0.1283887,-0.06681301,0.526076,-0.4838009,0.02353108,0.8510184,11.18777,29.64699,-31.97115,1001.527
2.254838466,-0.3053459,-0.1859316,0.526076,-0.4843778,0.02834777,0.8490736,11.18777,29.64699,-31.97115,1001.527
2.257335186,-0.367308,-0.4837281,0.09767462,-0.4693283,0.03350703,0.847595,11.18777,29.64699,-31.97115,1001.527
2.259832382,-0.3053459,-0.4837281,0.220075,-0.4521473,0.02968096,0.8605092,11.18777,29.64699,-31.97115,1001.527
2.262329578,-0.5531943,-0.1263723,0.3424754,-0.4579853,0.02864875,0.8652967,11.18777,29.64699,-31.97115,1001.527
2.264826298,-0.9249667,0.0523056,0.3424754,-0.4621864,0.01791635,0.8682416,11.18777,29.64699,-31.97115,1001.527
2.267323494,-1.296739,0.2309835,0.2812752,-0.4757829,0.01261463,0.8568235,11.18777,29.64699,-31.97115,1001.527
2.269821167,-0.8630047,0.2309835,0.3424754,-0.4886087,0.01840554,0.8386385,11.18777,29.64699,-31.97115,1001.527
2.272317409,-0.1194596,0.0523056,0.2812752,-0.4889488,0.03669863,0.8275219,11.18777,29.64699,-31.97115,1001.527
2.274815082,-0.1194596,-0.2454909,-0.02472578,-0.4733443,0.03916924,0.841825,10.45241,29.61536,-32.79877,1001.527
2.277311325,-0.3053459,0.2309835,0.03647441,-0.4707586,0.03275621,0.8662301,10.45241,29.61536,-32.79877,1001.527
2.279808998,0.004464544,0.7670172,-0.02472578,-0.4888975,0.03561001,0.8547565,10.45241,29.61536,-32.79877,1001.527
2.282306194,-0.367308,0.2905428,0.3424754,-0.5065135,0.03714084,0.8523676,10.45241,29.61536,-32.79877,1001.527
2.284802913,-1.482626,-0.3646095,0.220075,-0.5038931,0.02756474,0.8581663,10.45241,29.61536,-32.79877,1001.527
2.287300110,-2.412057,-0.4241688,0.03647441,-0.4901753,-0.002310942,0.8531172,10.45241,29.61536,-32.79877,1001.528
2.289796829,-2.535981,-0.3646095,0.526076,-0.4854543,-0.02132341,0.8398755,10.45241,29.61536,-32.79877,1001.528
2.292294025,-0.8010426,-0.1859316,0.7708768,-0.4842061,-0.01098907,0.8120964,10.45241,29.61536,-32.79877,1001.528
2.294792652,1.987252,-0.3050502,0.8932772,-0.4789349,-0.003770092,0.8349697,10.45241,29.61536,-32.79877,1001.528
2.297287941,2.916683,-0.007253703,1.015678,-0.4743963,0.01762153,0.8658626,10.45241,29.61536,-32.79877,1001.528
2.299785614,1.739403,0.0523056,1.199278,-0.4864012,0.03401129,0.8762613,10.45241,29.61536,-32.79877,1001.528
2.302282810,0.004464544,-0.2454909,1.015678,-0.4897657,0.03043759,0.8686462,10.45241,29.61536,-32.79877,1001.528
2.304779529,-1.544588,-0.5432874,0.832077,-0.4818363,0.02312646,0.8538861,10.45241,29.61536,-32.79877,1001.528
2.307276726,-1.668512,-0.662406,0.8932772,-0.4812836,0.01856954,0.8391107,10.45241,29.61536,-32.79877,1001.528
2.309773445,0.1283887,-0.2454909,0.9544774,-0.4847674,0.02182222,0.8338352,10.45241,29.61536,-32.79877,1001.528
2.312270641,1.491555,-0.2454909,1.015678,-0.4890961,0.01962981,0.8582143,10.45241,29.61536,-32.79877,1001.528
2.314767837,0.6240854,-0.4837281,1.015678,-0.489185,0.02506472,0.8653405,10.45241,29.61536,-32.79877,1001.528
2.317264557,-0.9249667,-0.7219653,1.199278,-0.4890597,0.01771439,0.8601386,10.45241,29.61536,-32.79877,1001.528
2.319761753,-1.60655,-0.8410839,1.076878,-0.4888394,0.004405189,0.8449482,10.45241,29.61536,-32.79877,1001.528
2.322258472,-1.110853,-0.7815246,1.076878,-0.4812848,-0.008604703,0.84026,10.45241,29.61536,-32.79877,1001.528
2.324755668,-0.1814217,-0.8410839,1.382879,-0.484461,0.004261321,0.8272731,11.20025,28.90072,-32.40477,1001.528
2.327253342,1.181744,-0.7219653,1.260478,-0.4832573,0.01945302,0.8357618,11.20025,28.90072,-32.40477,1001.525
2.329749584,2.173137,-0.6028467,1.321679,-0.4775107,0.02649564,0.8447838,11.20025,28.90072,-32.40477,1001.525
2.332252025,1.739403,-0.6028467,1.505279,-0.482742,0.04701148,0.8623142,11.20025,28.90072,-32.40477,1001.525
2.334744453,0.9958581,-0.662406,1.321679,-0.4877249,0.05279444,0.8670524,11.20025,28.90072,-32.40477,1001.525
2.337241173,-0.8630047,-1.13888,1.199278,-0.4816299,0.03983035,0.8680967,11.20025,28.90072,-32.40477,1001.525
2.339738369,-2.535981,-1.436677,1.015678,-0.4715421,0.02147672,0.8591461,11.20025,28.90072,-32.40477,1001.525
2.342235088,-2.907754,-1.317558,1.076878,-0.4662334,-0.002805508,0.8502406,11.20025,28.90072,-32.40477,1001.525
2.344732284,-1.482626,-0.9602025,1.199278,-0.4677002,-0.003476957,0.8387824,11.20025,28.90072,-32.40477,1001.525
2.347229004,0.7480097,-0.4837281,1.505279,-0.4821791,0.0136118,0.8329369,11.20025,28.90072,-32.40477,1001.525
2.349726200,1.801365,-0.6028467,1.505279,-0.4810048,0.03082201,0.8471434,11.20025,28.90072,-32.40477,1001.525
2.352223873,0.8099718,-0.662406,1.382879,-0.4856033,0.04305319,0.8613887,11.20025,28.90072,-32.40477,1001.525
2.354720116,-0.9869288,-0.7815246,1.138078,-0.4770582,0.02904217,0.8528857,11.20025,28.90072,-32.40477,1001.525
2.357217789,-1.60655,-1.019762,1.199278,-0.4763834,0.01831171,0.8481852,11.20025,28.90072,-32.40477,1001.525
2.359714985,-0.9869288,-0.9006432,1.444079,-0.482846,0.02445824,0.8462345,11.20025,28.90072,-32.40477,1001.525
2.362211704,0.1283887,-0.7815246,1.444079,-0.4844403,0.03171907,0.847139,11.20025,28.90072,-32.40477,1001.525
2.364708900,0.314275,-0.7815246,1.382879,-0.4907019,0.02672311,0.8467006,11.20025,28.90072,-32.40477,1001.525
2.367205620,-0.6151563,-0.9006432,1.382879,-0.4787765,0.01651774,0.8630071,11.20025,28.90072,-32.40477,1001.527
2.369702816,-0.9869288,-0.7219653,1.321679,-0.4643623,0.002768075,0.8645297,11.20025,28.90072,-32.40477,1001.527
2.372200012,-0.1814217,-0.5432874,1.382879,-0.4850444,0.01081741,0.8463331,11.20025,28.90072,-32.40477,1001.527
2.374696731,0.9338959,-0.7815246,1.68888,-0.4991924,0.03602497,0.829921,11.19393,29.26961,-32.41119,1001.527
2.377193928,1.677441,-0.7219653,1.505279,-0.4845791,0.04009799,0.8566326,11.19393,29.26961,-32.41119,1001.527
2.379691601,1.615479,-0.2454909,1.75008,-0.4952634,0.03765949,0.8728969,11.19393,29.26961,-32.41119,1001.527
2.382188797,0.5001613,-0.7219653,1.444079,-0.5026997,0.04199407,0.8461211,11.19393,29.26961,-32.41119,1001.527
2.384685516,-0.6771184,-1.317558,1.260478,-0.4779534,0.02409087,0.8471896,11.19393,29.26961,-32.41119,1001.527
2.387182236,-1.048891,-1.079321,1.260478,-0.4619386,0.003784744,0.8640434,11.19393,29.26961,-32.41119,1001.527
2.389679432,0.1283887,-0.007253703,1.444079,-0.4883745,0.005910244,0.8478031,11.19393,29.26961,-32.41119,1001.527
2.392176628,2.606872,-0.007253703,1.62768,-0.5125689,0.01802177,0.8123838,11.19393,29.26961,-32.41119,1001.527
2.394675255,3.72219,-1.794033,1.62768,-0.4991675,0.03516391,0.8380474,11.19393,29.26961,-32.41119,1001.527
2.397170544,2.978645,-1.853592,1.444079,-0.4722369,0.03497516,0.889143,11.19393,29.26961,-32.41119,1001.527
2.399667263,2.049214,-1.079321,1.382879,-0.481152,0.04030038,0.8661824,11.19393,29.26961,-32.41119,1001.527
2.402164459,0.8719338,-0.7815246,1.260478,-0.4976356,0.03188855,0.8447572,11.19393,29.26961,-32.41119,1001.527
2.404662132,0.4381992,-0.7219653,1.138078,-0.4866047,0.01551645,0.8372249,11.19393,29.26961,-32.41119,1001.527
2.407158375,0.8099718,-0.8410839,1.138078,-0.4802624,0.01679112,0.8496314,11.19393,29.26961,-32.41119,1001.527
2.409656048,1.491555,-0.7815246,1.138078,-0.481828,0.02263471,0.8534119,11.19393,29.26961,-32.41119,1001.53
2.412152290,1.243706,-0.4241688,1.199278,-0.4917677,0.03274474,0.8628989,11.19393,29.26961,-32.41119,1001.53
2.414649963,0.5001613,-0.4837281,1.138078,-0.4911592,0.02594176,0.8615141,11.19393,29.26961,-32.41119,1001.53
2.417147159,-0.6771184,-0.8410839,1.015678,-0.4806662,0.01311731,0.8658984,11.19393,29.26961,-32.41119,1001.53
2.419647693,-0.8010426,-1.079321,1.199278,-0.4817635,0.01868146,0.8481858,11.19393,29.26961,-32.41119,1001.53
2.422141075,0.1283887,-0.6028467,1.076878,-0.4856378,0.01661758,0.8453369,11.19393,29.26961,-32.41119,1001.53
2.424638271,0.4381992,-0.6028467,0.8932772,-0.4868712,0.03059931,0.8399835,11.56131,29.27025,-32.79464,1001.53
2.427134991,0.8719338,-0.6028467,0.7708768,-0.4844809,0.03479838,0.8595363,11.56131,29.27025,-32.79464,1001.53
2.429632187,0.9338959,-0.5432874,0.7708768,-0.4863918,0.03292472,0.8676711,11.56131,29.27025,-32.79464,1001.53
2.432128906,-0.1814217,-0.662406,1.138078,-0.4779822,0.02672999,0.8629337,11.56131,29.27025,-32.79464,1001.53
2.434626102,-1.110853,-0.5432874,1.076878,-0.4852453,0.02257407,0.8543698,11.56131,29.27025,-32.79464,1001.53
2.437123775,-0.9869288,-0.662406,0.832077,-0.4851647,0.0176309,0.8477176,11.56131,29.27025,-32.79464,1001.53
2.439620495,-0.4292701,-0.6028467,0.8932772,-0.4830609,0.008853805,0.8415694,11.56131,29.27025,-32.79464,1001.53
2.442117691,0.7480097,-0.4837281,1.015678,-0.4827901,0.02099029,0.8410049,11.56131,29.27025,-32.79464,1001.53
2.444614410,1.305668,-0.5432874,0.8932772,-0.4786378,0.03529374,0.8509314,11.56131,29.27025,-32.79464,1001.53
2.447111606,0.5001613,-0.2454909,0.7096766,-0.479132,0.03642136,0.8633429,11.56131,29.27025,-32.79464,1001.53
2.449608803,-0.05749755,-0.2454909,0.7096766,-0.4773044,0.01665235,0.8706479,11.56131,29.27025,-32.79464,1001.526
2.452105522,-0.2433838,-0.3646095,1.138078,-0.4852709,0.02403641,0.854837,11.56131,29.27025,-32.79464,1001.526
2.454602718,-0.1194596,-0.662406,0.832077,-0.4878039,0.02815826,0.8404791,11.56131,29.27025,-32.79464,1001.526
2.457099914,0.1903508,-0.6028467,0.6484764,-0.4813139,0.02057516,0.843873,11.56131,29.27025,-32.79464,1001.526
2.459596634,0.4381992,-0.6028467,0.832077,-0.4774871,0.02561526,0.8514774,11.56131,29.27025,-32.79464,1001.526
2.462094307,1.05782,-0.3646095,0.8932772,-0.4820179,0.03271642,0.8452199,11.56131,29.27025,-32.79464,1001.526
2.464590549,1.05782,-0.2454909,0.832077,-0.4868844,0.03224206,0.853824,11.56131,29.27025,-32.79464,1001.526
2.467088222,0.3762371,-0.3646095,0.7708768,-0.4829133,0.02959472,0.8672152,11.56131,29.27025,-32.79464,1001.526
2.469585419,-0.3053459,-0.6028467,0.9544774,-0.4784393,0.02472675,0.859127,11.56131,29.27025,-32.79464,1001.526
2.472087383,-0.6771184,-0.8410839,1.199278,-0.4812364,0.01680877,0.8524978,11.56131,29.27025,-32.79464,1001.526
2.474579334,-0.3053459,-0.4837281,0.9544774,-0.4885755,0.01705275,0.8462907,11.94162,28.54769,-32.39987,1001.526
2.477076053,0.314275,-0.3050502,1.138078,-0.4864248,0.005900713,0.8439807,11.94162,28.54769,-32.39987,1001.526
2.479573250,0.9338959,-0.4241688,1.138078,-0.4906946,0.02621849,0.8452713,11.94162,28.54769,-32.39987,1001.526
2.482070446,1.925289,-0.4241688,0.9544774,-0.4869273,0.0334531,0.8356642,11.94162,28.54769,-32.39987,1001.526
2.484567165,2.049214,-0.4241688,1.260478,-0.4792883,0.04515671,0.8632807,11.94162,28.54769,-32.39987,1001.526
2.487064361,0.7480097,-0.3646095,1.076878,-0.4826506,0.04283711,0.8766738,11.94162,28.54769,-32.39987,1001.526
2.489561081,-0.4292701,-0.5432874,0.832077,-0.4947167,0.03362653,0.8609837,11.94162,28.54769,-32.39987,1001.527
2.492058754,-0.8630047,-0.7219653,0.7096766,-0.4866497,0.01853132,0.8448461,11.94162,28.54769,-32.39987,1001.527
2.494555950,-0.7390805,-1.019762,0.9544774,-0.4866868,0.01982613,0.8328953,11.94162,28.54769,-32.39987,1001.527
2.497052669,0.6240854,-0.7815246,0.9544774,-0.486312,0.02674677,0.8414437,11.94162,28.54769,-32.39987,1001.527
2.499549866,1.429593,-0.662406,0.9544774,-0.4826947,0.01687391,0.8596632,11.94162,28.54769,-32.39987,1001.527
2.502047062,0.6240854,-0.4837281,1.015678,-0.482356,0.02571641,0.8667648,11.94162,28.54769,-32.39987,1001.527
2.504543781,0.3762371,-0.4241688,1.199278,-0.4858592,0.02929974,0.850023,11.94162,28.54769,-32.39987,1001.527
2.507040977,0.4381992,-0.7815246,1.199278,-0.49176,0.03163239,0.8523982,11.94162,28.54769,-32.39987,1001.527
2.509537697,0.2523129,-0.7815246,0.8932772,-0.4823266,0.0236979,0.8610473,11.94162,28.54769,-32.39987,1001.527
2.512034893,0.004464544,-0.7219653,0.832077,-0.4833077,0.02361246,0.8562718,11.94162,28.54769,-32.39987,1001.527
2.514532566,0.1903508,-0.7815246,0.832077,-0.4857525,0.02290067,0.8433814,11.94162,28.54769,-32.39987,1001.527
2.517028808,0.6860476,-1.019762,0.832077,-0.487905,0.03402693,0.8437809,11.94162,28.54769,-32.39987,1001.527
2.519526482,1.05782,-0.9006432,0.4648758,-0.4776287,0.03456323,0.8671766,11.94162,28.54769,-32.39987,1001.527
2.522023201,0.5621234,-0.7219653,0.7096766,-0.4750087,0.02498069,0.8724978,11.94162,28.54769,-32.39987,1001.527
2.524520397,-0.2433838,-0.8410839,1.015678,-0.4788704,0.02126762,0.8553306,11.56777,28.90865,-32.40553,1001.527
2.527017593,-0.367308,-1.079321,0.9544774,-0.4872493,0.02546317,0.8557832,11.56777,28.90865,-32.40553,1001.527
2.529514313,-0.3053459,-0.8410839,0.7096766,-0.4840726,0.01138171,0.8506276,11.56777,28.90865,-32.40553,1001.529
2.532011509,-0.1814217,-0.9602025,0.9544774,-0.485561,0.01223058,0.8439351,11.56777,28.90865,-32.40553,1001.529
2.534508228,0.1903508,-1.019762,1.076878,-0.4867231,0.02235571,0.8405198,11.56777,28.90865,-32.40553,1001.529
2.537005424,1.305668,-0.9602025,0.8932772,-0.4834209,0.02869299,0.837129,11.56777,28.90865,-32.40553,1001.529
2.539502621,1.305668,-0.9006432,1.076878,-0.4833466,0.02610338,0.8610307,11.56777,28.90865,-32.40553,1001.529
2.541999340,0.6860476,-1.13888,1.076878,-0.4869182,0.03419613,0.8547655,11.56777,28.90865,-32.40553,1001.529
2.544497013,-0.1194596,-1.257999,1.015678,-0.4848883,0.03045887,0.8624335,11.56777,28.90865,-32.40553,1001.529
2.546994209,-0.3053459,-1.257999,0.9544774,-0.4751959,0.03387916,0.8485512,11.56777,28.90865,-32.40553,1001.529
2.549490929,-0.05749755,-1.257999,1.138078,-0.4692152,0.02781233,0.8571889,11.56777,28.90865,-32.40553,1001.529
2.551988125,-0.05749755,-1.079321,1.138078,-0.4715925,0.02441428,0.8610359,11.56777,28.90865,-32.40553,1001.529
2.554484844,-0.2433838,-1.19844,1.015678,-0.4807094,0.01493607,0.8568099,11.56777,28.90865,-32.40553,1001.529
2.556982040,-0.1194596,-1.496236,1.015678,-0.4799809,0.02786036,0.8419096,11.56777,28.90865,-32.40553,1001.529
2.559481144,0.3762371,-1.496236,0.8932772,-0.480608,0.03622876,0.8514036,11.56777,28.90865,-32.40553,1001.529
2.561975956,0.4381992,-1.257999,1.015678,-0.4782768,0.04201464,0.8446736,11.56777,28.90865,-32.40553,1001.529
2.564473152,0.2523129,-1.019762,1.015678,-0.4792446,0.0421225,0.8542267,11.56777,28.90865,-32.40553,1001.529
2.566969871,-0.05749755,-1.19844,0.9544774,-0.4830622,0.03782544,0.8657236,11.56777,28.90865,-32.40553,1001.529
2.569467068,-0.5531943,-1.257999,0.8932772,-0.4849887,0.03572625,0.8571417,11.56777,28.90865,-32.40553,1001.526
2.571964741,-0.9869288,-1.615355,0.7708768,-0.4735581,0.02419185,0.847664,11.56777,28.90865,-32.40553,1001.526
2.574461460,-1.172815,-1.317558,0.8932772,-0.4710943,0.02334465,0.8529229,10.83273,28.8928,-32.404,1001.526
2.576958656,-0.367308,-1.19844,0.8932772,-0.4703429,0.03476794,0.8346897,10.83273,28.8928,-32.404,1001.526
2.579455852,0.5001613,-1.19844,0.6484764,-0.4736939,0.0320017,0.850952,10.83273,28.8928,-32.404,1001.526
2.581952572,0.5001613,-1.079321,0.832077,-0.4742228,0.03507051,0.8633497,10.83273,28.8928,-32.404,1001.526
2.584449768,0.004464544,-1.13888,0.832077,-0.4753553,0.04379129,0.8637658,10.83273,28.8928,-32.404,1001.526
2.586946487,-0.6151563,-1.019762,0.3424754,-0.4760906,0.0301562,0.8619528,10.83273,28.8928,-32.404,1001.526
2.589443684,-1.296739,-1.377118,0.4036756,-0.475755,0.01118451,0.8587444,10.83273,28.8928,-32.404,1001.526
2.591940880,-0.7390805,-1.734473,0.5872762,-0.4829705,0.03182146,0.8523917,10.83273,28.8928,-32.404,1001.526
2.594437599,-0.05749755,-2.03227,0.4036756,-0.4805959,0.03518085,0.8456791,10.83273,28.8928,-32.404,1001.526
2.596936226,-0.5531943,-1.496236,0.2812752,-0.4724018,0.04175204,0.851837,10.83273,28.8928,-32.404,1001.526
2.599431515,-0.9249667,-0.9602025,0.220075,-0.4721395,0.02721891,0.8538512,10.83273,28.8928,-32.404,1001.526
2.601929188,-0.9249667,-0.9006432,0.4648758,-0.4760342,0.02669468,0.8572009,10.83273,28.8928,-32.404,1001.526
2.604426384,-1.296739,-1.079321,0.4648758,-0.4750149,0.0236686,0.8471909,10.83273,28.8928,-32.404,1001.526
2.606923103,-1.668512,-1.377118,0.3424754,-0.4749857,0.02225781,0.8505446,10.83273,28.8928,-32.404,1001.526
2.609420299,-1.544588,-0.9006432,0.2812752,-0.468622,0.02139799,0.8486363,10.83273,28.8928,-32.404,1001.528
2.611917496,-0.3053459,-0.662406,0.3424754,-0.4671876,0.02282096,0.8438487,10.83273,28.8928,-32.404,1001.528
2.614414215,0.4381992,-0.7815246,0.2812752,-0.4708496,0.03693702,0.8523481,10.83273,28.8928,-32.404,1001.528
2.616911411,0.004464544,-1.13888,0.2812752,-0.4748051,0.04103176,0.8742938,10.83273,28.8928,-32.404,1001.528
2.619408131,-0.8010426,-1.19844,0.09767462,-0.4848588,0.02905452,0.8662648,10.83273,28.8928,-32.404,1001.528
2.621905327,-1.296739,-1.555796,0.1588748,-0.4856993,0.02061594,0.8539063,10.83273,28.8928,-32.404,1001.528
2.624403000,-1.792436,-1.734473,0.1588748,-0.4837931,0.02303289,0.8500665,11.19393,29.26961,-32.41119,1001.528
2.626899719,-1.730474,-1.555796,0.09767462,-0.475956,0.02110513,0.8386118,11.19393,29.26961,-32.41119,1001.528
2.629396915,-1.358701,-1.19844,0.2812752,-0.4748031,0.01145886,0.8415459,11.19393,29.26961,-32.41119,1001.528
2.631893635,-0.8010426,-0.9602025,0.2812752,-0.47683,0.01584895,0.8462924,11.19393,29.26961,-32.41119,1001.528
2.634390831,0.1283887,-1.555796,0.4648758,-0.4758742,0.01740316,0.8520128,11.19393,29.26961,-32.41119,1001.528
2.636888027,0.1283887,-1.555796,0.4648758,-0.475419,0.01998835,0.8629803,11.19393,29.26961,-32.41119,1001.528
2.639384746,-0.4292701,-1.317558,0.6484764,-0.4789025,0.02446935,0.8768027,11.19393,29.26961,-32.41119,1001.528
2.641881943,-0.8010426,-1.317558,0.7096766,-0.4797895,0.01841215,0.8610835,11.19393,29.26961,-32.41119,1001.528
2.644378662,-0.8010426,-1.377118,0.9544774,-0.4855982,0.01474727,0.8506045,11.19393,29.26961,-32.41119,1001.528
2.646875858,-0.8010426,-1.615355,1.015678,-0.474922,0.01829167,0.8443632,11.19393,29.26961,-32.41119,1001.528
2.649373531,-0.4912321,-1.615355,1.015678,-0.4709844,0.01760485,0.8591734,11.19393,29.26961,-32.41119,1001.526
