Time (s),Gyroscope X (deg/s),Gyroscope Y (deg/s),Gyroscope Z (deg/s),Accelerometer X (g),Accelerometer Y (g),Accelerometer Z (g),Magnetometer X (uT),Magnetometer Y (uT),Magnetometer Z (uT),Barometer (hPa)
0.000000000,-0.3568801,-0.07121277,-0.234054,-0.4731176,0.1092575,0.8542218,7.75434,1.38802,-25.85779,1001.573
0.002492905,-0.294918,-0.1903314,-0.234054,-0.4716024,0.1063514,0.8523309,7.75434,1.38802,-25.85779,1001.573
0.004989624,-0.3568801,-0.1307721,-0.1728538,-0.4647681,0.1070804,0.8594867,7.75434,1.38802,-25.85779,1001.573
0.007486820,-0.294918,0.04790583,-0.1116536,-0.4716162,0.1073736,0.8561449,7.75434,1.38802,-25.85779,1001.573
0.009984016,-0.294918,0.04790583,-0.1728538,-0.4746208,0.1111156,0.8503881,7.75434,1.38802,-25.85779,1001.573
0.012481213,-0.5427663,-0.01165347,-0.1116536,-0.4741464,0.1121483,0.8542017,7.75434,1.38802,-25.85779,1001.573
0.014978886,-0.6047285,0.04790583,-0.234054,-0.4735694,0.1073316,0.8561464,7.75434,1.38802,-25.85779,1001.573
0.017475128,-0.4808043,0.04790583,-0.2952542,-0.470733,0.1121509,0.8489453,7.75434,1.38802,-25.85779,1001.573
0.019972801,-0.4188422,-0.01165347,-0.1116536,-0.4702252,0.111223,0.85134,7.748182,1.765403,-25.41775,1001.573
0.022469997,-0.6047285,-0.01165347,-0.234054,-0.4726832,0.112154,0.8522902,7.748182,1.765403,-25.41775,1001.573
0.024967194,-0.5427663,0.1670244,-0.234054,-0.4745331,0.1062755,0.8513778,7.748182,1.765403,-25.41775,1001.573
0.027463913,-0.5427663,0.1074651,-0.1728538,-0.4720698,0.1054219,0.8561592,7.748182,1.765403,-25.41775,1001.573
0.029961109,-0.5427663,0.1670244,-0.05045342,-0.470638,0.1068062,0.8485057,7.748182,1.765403,-25.41775,1001.573
0.032458782,-0.4188422,0.1670244,0.01074678,-0.472171,0.1106764,0.849912,7.748182,1.765403,-25.41775,1001.573
0.034955978,-0.4808043,0.1074651,-0.1116536,-0.4711648,0.1092931,0.8537427,7.748182,1.765403,-25.41775,1001.573
0.037453175,-0.6666905,0.1074651,-0.234054,-0.4720325,0.1029052,0.8494897,7.748182,1.765403,-25.41775,1001.573
0.039949894,-0.6666905,0.1074651,-0.2952542,-0.4721623,0.1101911,0.8499155,7.748182,1.765403,-25.41775,1001.573
0.042447567,-0.4808043,0.1670244,-0.234054,-0.4770359,0.1096136,0.8508778,7.748182,1.765403,-25.41775,1001.573
0.044944286,-0.294918,0.2265837,-0.1116536,-0.4735612,0.1068398,0.8556722,7.748182,1.765403,-25.41775,1001.573
0.047441959,-0.5427663,0.04790583,-0.234054,-0.4701866,0.1087257,0.8461034,7.748182,1.765403,-25.41775,1001.575
0.049938202,-0.5427663,0.1074651,-0.3564544,-0.4711328,0.1073132,0.8508908,7.748182,1.765403,-25.41775,1001.575
0.052435875,-0.4188422,0.2265837,-0.234054,-0.4736836,0.1136211,0.8546686,7.748182,1.765403,-25.41775,1001.575
0.054933071,-0.4188422,0.1670244,-0.2952542,-0.4760562,0.1096798,0.8542204,7.748182,1.765403,-25.41775,1001.575
0.057430267,-0.294918,0.1074651,-0.234054,-0.4760475,0.1091945,0.8542239,7.748182,1.765403,-25.41775,1001.575
0.059927464,-0.4188422,0.1074651,-0.2952542,-0.4745975,0.1096211,0.8475327,7.748182,1.765403,-25.41775,1001.575
0.062424183,-0.3568801,-0.07121277,-0.234054,-0.4765892,0.1120764,0.8527706,7.748182,1.765403,-25.41775,1001.575
0.064921856,-0.4808043,-0.01165347,-0.234054,-0.4766002,0.1125295,0.8503791,7.748182,1.765403,-25.41775,1001.575
0.067419052,-0.4188422,0.1670244,-0.3564544,-0.4741448,0.1115599,0.8465633,7.748182,1.765403,-25.41775,1001.575
0.069916248,-0.4808043,0.1074651,-0.2952542,-0.4750704,0.1092219,0.8547007,8.115377,1.756334,-26.31145,1001.575
0.072412968,-0.4808043,0.04790583,-0.1116536,-0.4717573,0.1151061,0.8537015,8.115377,1.756334,-26.31145,1001.575
0.074910164,-0.4808043,0.04790583,-0.1728538,-0.4731276,0.1097234,0.8527854,8.115377,1.756334,-26.31145,1001.575
0.077407360,-0.5427663,0.1074651,-0.1116536,-0.4687308,0.109236,0.8456213,8.115377,1.756334,-26.31145,1001.575
0.079905033,-0.6047285,0.04790583,-0.1116536,-0.4716467,0.108765,0.8513584,8.115377,1.756334,-26.31145,1001.575
0.082402229,-0.6666905,-0.01165347,-0.2952542,-0.4754988,0.1058014,0.8537701,8.115377,1.756334,-26.31145,1001.575
0.084898949,-0.4808043,-0.07121277,-0.1728538,-0.4697016,0.1092988,0.8518311,8.115377,1.756334,-26.31145,1001.575
0.087396145,-0.5427663,0.04790583,-0.234054,-0.4761392,0.1139765,0.8489355,8.115377,1.756334,-26.31145,1001.572
0.089893341,-0.5427663,0.1074651,-0.2952542,-0.4770916,0.1124739,0.8470361,8.115377,1.756334,-26.31145,1001.572
0.092390537,-0.5427663,0.1670244,-0.1728538,-0.4764539,0.1042601,0.849005,8.115377,1.756334,-26.31145,1001.572
0.094888210,-0.6666905,0.1670244,-0.1728538,-0.4740039,0.1044351,0.8580779,8.115377,1.756334,-26.31145,1001.572
0.097384930,-0.5427663,0.04790583,-0.1116536,-0.4705923,0.1044119,0.8509111,8.115377,1.756334,-26.31145,1001.572
0.099882603,-0.6047285,-0.01165347,-0.1116536,-0.4755727,0.1096194,0.8489662,8.115377,1.756334,-26.31145,1001.572
0.102379322,-0.5427663,0.1074651,-0.1728538,-0.4745778,0.1086827,0.8499277,8.115377,1.756334,-26.31145,1001.572
0.104876518,-0.4188422,-0.01165347,-0.234054,-0.4731555,0.1111536,0.8508646,8.115377,1.756334,-26.31145,1001.572
0.107373238,-0.5427663,0.04790583,0.01074678,-0.4750452,0.1077531,0.853756,8.115377,1.756334,-26.31145,1001.572
0.109870434,-0.6047285,0.1670244,-0.2952542,-0.4790294,0.1120432,0.8542053,8.115377,1.756334,-26.31145,1001.572
0.112368107,-0.6047285,0.1670244,-0.234054,-0.4721679,0.1107215,0.8532553,8.115377,1.756334,-26.31145,1001.572
0.114865303,-0.4808043,0.3457023,-0.1116536,-0.4726012,0.1072301,0.8470709,8.115377,1.756334,-26.31145,1001.572
0.117362499,-0.294918,0.1074651,0.01074678,-0.4756054,0.1109786,0.8417916,8.115377,1.756334,-26.31145,1001.572
0.119859219,-0.3568801,0.1074651,-0.1728538,-0.4756409,0.1135211,0.8503715,7.748017,1.756906,-25.86422,1001.572
0.122356415,-0.6666905,-0.07121277,-0.1116536,-0.4721813,0.1117501,0.857547,7.748017,1.756906,-25.86422,1001.572
0.124858379,-0.4808043,-0.01165347,-0.234054,-0.4701917,0.1092625,0.849921,7.748017,1.756906,-25.86422,1001.572
0.127351284,-0.6666905,0.04790583,-0.2952542,-0.4716954,0.1111142,0.8456096,7.748017,1.756906,-25.86422,1001.574
0.129848003,-0.6047285,-0.07121277,-0.2952542,-0.4755874,0.1106286,0.8518251,7.748017,1.756906,-25.86422,1001.574
0.132345200,-0.5427663,0.04790583,-0.234054,-0.4710386,0.1019556,0.8494959,7.748017,1.756906,-25.86422,1001.574
0.134842396,-0.5427663,-0.01165347,-0.2952542,-0.4725204,0.1029011,0.8499678,7.748017,1.756906,-25.86422,1001.574
0.137339592,-0.4808043,0.1670244,-0.234054,-0.4721136,0.1078419,0.8556643,7.748017,1.756906,-25.86422,1001.574
0.139837265,-0.294918,0.1670244,-0.1116536,-0.4741183,0.1101104,0.8470513,7.748017,1.756906,-25.86422,1001.574
0.142333508,-0.4808043,0.1074651,-0.234054,-0.475104,0.1105683,0.8465709,7.748017,1.756906,-25.86422,1001.574
0.144831181,-0.4188422,0.04790583,-0.3564544,-0.4711944,0.1106974,0.8499113,7.748017,1.756906,-25.86422,1001.574
0.147328377,-0.4188422,0.1074651,-0.234054,-0.4746907,0.1149915,0.8498828,7.748017,1.756906,-25.86422,1001.574
0.149825573,-0.4188422,0.1074651,0.01074678,-0.4731476,0.1106554,0.8499128,7.748017,1.756906,-25.86422,1001.574
0.152322292,-0.5427663,0.1074651,-0.234054,-0.4730508,0.1053364,0.8513837,7.748017,1.756906,-25.86422,1001.574
0.154819489,-0.4188422,0.1670244,-0.1728538,-0.470187,0.1087192,0.8456258,7.748017,1.756906,-25.86422,1001.574
0.157316685,-0.4188422,0.04790583,-0.234054,-0.474153,0.1120516,0.8470374,7.748017,1.756906,-25.86422,1001.574
0.159814358,-0.4808043,0.1670244,-0.1728538,-0.4745843,0.1092002,0.8523123,7.748017,1.756906,-25.86422,1001.574
0.162311077,-0.5427663,0.2265837,-0.2952542,-0.4750484,0.107708,0.8504126,7.748017,1.756906,-25.86422,1001.574
0.164808273,-0.4808043,0.1670244,-0.1728538,-0.4741047,0.109696,0.8523085,7.748017,1.756906,-25.86422,1001.574
0.167305470,-0.4808043,-0.01165347,-0.1728538,-0.4716594,0.1091923,0.8470563,7.748017,1.756906,-25.86422,1001.572
0.169802666,-0.4808043,0.1074651,-0.3564544,-0.4750584,0.108174,0.8489763,7.380494,1.748982,-25.86345,1001.572
0.172300339,-0.5427663,0.1670244,-0.2952542,-0.4755329,0.1071414,0.8451626,7.380494,1.748982,-25.86345,1001.572
0.174796581,-0.4808043,0.1670244,-0.234054,-0.4746351,0.1121313,0.8537245,7.380494,1.748982,-25.86345,1001.572
0.177294254,-0.4808043,0.2265837,-0.1728538,-0.4735096,0.1039216,0.8552153,7.380494,1.748982,-25.86345,1001.572
0.179791451,-0.3568801,0.1074651,-0.1728538,-0.4759894,0.1057587,0.8513824,7.380494,1.748982,-25.86345,1001.572
0.182288647,-0.2329559,-0.07121277,-0.05045342,-0.4771067,0.1134767,0.8494173,7.380494,1.748982,-25.86345,1001.572
0.184785843,-0.294918,0.1074651,-0.234054,-0.4726371,0.1097662,0.8551731,7.380494,1.748982,-25.86345,1001.572
0.187282562,-0.294918,0.1074651,-0.1116536,-0.4740713,0.1077355,0.8508895,7.380494,1.748982,-25.86345,1001.572
0.189779758,-0.1090318,0.04790583,0.01074678,-0.4745688,0.1082038,0.8504088,7.380494,1.748982,-25.86345,1001.572
0.192277432,-0.294918,-0.1307721,-0.05045342,-0.4755505,0.1087197,0.854227,7.380494,1.748982,-25.86345,1001.572
0.194774628,-0.3568801,0.1074651,-0.1116536,-0.4750444,0.107766,0.8547111,7.380494,1.748982,-25.86345,1001.572
0.197271347,-0.2329559,0.1074651,-0.1728538,-0.4779083,0.1037691,0.85092,7.380494,1.748982,-25.86345,1001.572
0.199768543,-0.04706966,-0.1903314,-0.1728538,-0.4726186,0.1082007,0.847064,7.380494,1.748982,-25.86345,1001.572
0.202265739,-0.1090318,0.04790583,-0.1116536,-0.4750072,0.1052493,0.8480418,7.380494,1.748982,-25.86345,1001.572
0.204763412,-0.1709938,0.1074651,-0.1116536,-0.475534,0.1077362,0.8532786,7.380494,1.748982,-25.86345,1001.572
0.207260608,-0.1709938,-0.1307721,-0.05045342,-0.4755687,0.1096774,0.8532648,7.380494,1.748982,-25.86345,1001.573
0.209757328,-0.294918,-0.1307721,-0.1728538,-0.4750197,0.1062908,0.8532887,7.380494,1.748982,-25.86345,1001.573
0.212254524,-0.3568801,-0.07121277,-0.234054,-0.4730987,0.1076985,0.8465902,7.380494,1.748982,-25.86345,1001.573
0.214751720,-0.1090318,-0.1903314,-0.1728538,-0.4706097,0.1053825,0.8509042,7.380494,1.748982,-25.86345,1001.573
0.217248916,-0.1090318,-0.07121277,-0.05045342,-0.4779791,0.1076321,0.8494595,7.380494,1.748982,-25.86345,1001.573
0.219745636,0.01489243,-0.1307721,0.07194699,-0.4774986,0.1081408,0.8504109,7.380329,1.740485,-26.30992,1001.573
0.222242832,0.2007787,-0.1307721,0.01074678,-0.4744423,0.1014806,0.855711,7.380329,1.740485,-26.30992,1001.573
0.224740505,0.2627408,-0.2498907,-0.05045342,-0.4770019,0.1082737,0.8594853,7.380329,1.740485,-26.30992,1001.573
0.227237701,0.1388166,-0.07121277,0.01074678,-0.4764565,0.1042214,0.8461393,7.380329,1.740485,-26.30992,1001.573
0.229734897,0.3247029,-0.07121277,0.07194699,-0.4773993,0.1022464,0.8451986,7.380329,1.740485,-26.30992,1001.573
0.232231617,0.2627408,-0.01165347,0.1331472,-0.4735787,0.1071963,0.8461164,7.380329,1.740485,-26.30992,1001.573
0.234728813,0.2627408,-0.01165347,0.07194699,-0.4721701,0.1106893,0.8508673,7.380329,1.740485,-26.30992,1001.573
0.237226486,0.4486271,-0.07121277,0.07194699,-0.4745392,0.1067995,0.8542401,7.380329,1.740485,-26.30992,1001.573
0.239723682,0.7584376,0.04790583,0.01074678,-0.4750423,0.1071841,0.8475503,7.380329,1.740485,-26.30992,1001.573
0.242220402,0.5725513,0.04790583,0.07194699,-0.4716267,0.1078331,0.854231,7.380329,1.740485,-26.30992,1001.573
0.244717598,0.5725513,-0.07121277,-0.05045342,-0.4755748,0.1102013,0.8561271,7.380329,1.740485,-26.30992,1001.573
0.247214794,0.5105891,-0.01165347,0.07194699,-0.4740627,0.1072502,0.850893,7.380329,1.740485,-26.30992,1001.573
0.249711990,0.5725513,0.04790583,0.07194699,-0.4711595,0.1081485,0.8408539,7.380329,1.740485,-26.30992,1001.572
0.252209663,0.6964754,-0.07121277,0.01074678,-0.4756079,0.1115541,0.8484748,7.380329,1.740485,-26.30992,1001.572
0.254705906,0.7584376,-0.01165347,0.3167478,-0.4760319,0.1081981,0.8523203,7.380329,1.740485,-26.30992,1001.572
0.257203579,0.6345134,0.04790583,0.1331472,-0.4726329,0.1092164,0.8504004,7.380329,1.740485,-26.30992,1001.572
0.259700775,0.6345134,0.04790583,0.01074678,-0.4740644,0.1072244,0.8489825,7.380329,1.740485,-26.30992,1001.572
0.262197971,0.5725513,0.1074651,0.07194699,-0.4707034,0.1107466,0.8527766,7.380329,1.740485,-26.30992,1001.572
0.264694691,0.6345134,0.1670244,0.1943474,-0.474581,0.1086376,0.8465844,7.380329,1.740485,-26.30992,1001.572
0.267191887,0.6964754,0.04790583,0.07194699,-0.4769509,0.1047349,0.8490019,7.380329,1.740485,-26.30992,1001.572
0.269690037,0.8823617,-0.07121277,0.1331472,-0.4721546,0.1096929,0.8489637,7.754175,1.379524,-26.30426,1001.572
0.272186756,0.9443238,-0.01165347,0.1331472,-0.4770099,0.1081578,0.8508882,7.754175,1.379524,-26.30426,1001.572
0.274683952,1.254134,-0.1307721,0.1943474,-0.4784514,0.1066317,0.8480339,7.754175,1.379524,-26.30426,1001.572
0.277180672,1.192172,-0.01165347,0.07194699,-0.4760054,0.1067486,0.8528083,7.754175,1.379524,-26.30426,1001.572
0.279677868,1.254134,-0.01165347,0.2555476,-0.4736108,0.1091761,0.8489683,7.754175,1.379524,-26.30426,1001.572
0.282175064,1.440021,0.04790583,0.1943474,-0.4726731,0.111688,0.8537265,7.754175,1.379524,-26.30426,1001.572
0.284672737,1.440021,-0.01165347,0.2555476,-0.4770025,0.1076531,0.8494588,7.754175,1.379524,-26.30426,1001.572
0.287169456,1.501983,-0.07121277,0.1943474,-0.4741099,0.1102328,0.856126,7.754175,1.379524,-26.30426,1001.572
0.289666653,1.378058,0.1074651,0.3167478,-0.4726536,0.1107496,0.8561215,7.754175,1.379524,-26.30426,1001.572
0.292163849,1.501983,0.1074651,0.1943474,-0.4721211,0.1077324,0.8475447,7.754175,1.379524,-26.30426,1001.572
0.294661045,1.687869,0.04790583,0.1331472,-0.4756044,0.1116057,0.8522958,7.754175,1.379524,-26.30426,1001.572
0.297158241,1.873755,0.1670244,0.2555476,-0.4789321,0.1067307,0.8561538,7.754175,1.379524,-26.30426,1001.572
0.299654960,2.121603,-0.07121277,0.377948,-0.4789604,0.1081544,0.8537554,7.754175,1.379524,-26.30426,1001.572
0.302152634,2.431414,-0.07121277,0.2555476,-0.4745661,0.1082425,0.8532745,7.754175,1.379524,-26.30426,1001.572
0.304649830,3.546731,0.1670244,0.3167478,-0.4646674,0.1012053,0.8557072,7.754175,1.379524,-26.30426,1001.572
0.307147026,4.476163,0.286143,0.6227488,-0.4859856,0.1187161,0.8560724,7.754175,1.379524,-26.30426,1001.572
0.309644222,2.245528,-0.1307721,0.4391482,-0.4720168,0.1302921,0.8641019,7.754175,1.379524,-26.30426,1001.572
0.312140941,1.873755,0.286143,0.1331472,-0.4548966,0.1008721,0.8514048,7.754175,1.379524,-26.30426,1001.572
0.314638138,3.298883,0.7626175,0.2555476,-0.4722873,0.08855691,0.830008,7.754175,1.379524,-26.30426,1001.572
0.317135811,3.980466,0.286143,0.6227488,-0.485462,0.11557,0.8379433,7.754175,1.379524,-26.30426,1001.572
0.319633007,3.174959,0.04790583,0.4391482,-0.4753416,0.1248481,0.8617544,7.754505,1.396517,-25.41133,1001.572
0.322129726,2.183565,-0.01165347,0.2555476,-0.4756198,0.1132162,0.8637482,7.754505,1.396517,-25.41133,1001.572
0.324626922,1.811793,-0.07121277,0.3167478,-0.4750597,0.1081547,0.8475434,7.754505,1.396517,-25.41133,1001.572
0.327124119,1.749831,-0.1307721,0.377948,-0.4706798,0.1086443,0.8408501,7.754505,1.396517,-25.41133,1001.572
0.329621792,1.873755,-0.01165347,0.3167478,-0.4706012,0.1042831,0.8413588,7.754505,1.396517,-25.41133,1001.57
0.332118988,2.183565,0.286143,0.3167478,-0.4691771,0.1067797,0.8442061,7.754505,1.396517,-25.41133,1001.57
0.334615707,2.493376,0.1670244,0.3167478,-0.4756166,0.1120394,0.8484713,7.754505,1.396517,-25.41133,1001.57
0.337112903,2.369452,0.04790583,0.2555476,-0.4752345,0.1184554,0.8555903,7.754505,1.396517,-25.41133,1001.57
0.339610100,1.749831,0.2265837,0.1943474,-0.4732813,0.1184974,0.8555889,7.754505,1.396517,-25.41133,1001.57
0.342107296,1.13021,0.1074651,0.3167478,-0.4746731,0.1134132,0.8408184,7.754505,1.396517,-25.41133,1001.57
0.344604015,1.068248,-0.1307721,0.1331472,-0.4731338,0.1096332,0.8460987,7.754505,1.396517,-25.41133,1001.57
0.347101211,1.006286,-0.1307721,0.1943474,-0.4726208,0.1081685,0.844676,7.754505,1.396517,-25.41133,1001.57
0.349598884,1.378058,-0.1307721,0.377948,-0.4712071,0.1111247,0.8456092,7.754505,1.396517,-25.41133,1001.57
0.352096081,1.563945,0.1670244,0.2555476,-0.4737301,0.1160025,0.851308,7.754505,1.396517,-25.41133,1001.57
0.354593277,1.254134,-0.01165347,0.2555476,-0.4781245,0.1159144,0.8517888,7.754505,1.396517,-25.41133,1001.57
0.357089996,1.13021,0.04790583,0.1331472,-0.4765828,0.1115589,0.850386,7.754505,1.396517,-25.41133,1001.57
0.359587192,1.068248,0.1670244,0.07194699,-0.469259,0.1117036,0.8494253,7.754505,1.396517,-25.41133,1001.57
0.362084865,1.13021,0.04790583,-0.05045342,-0.4712,0.1112278,0.8532512,7.754505,1.396517,-25.41133,1001.57
0.364582062,1.378058,-0.01165347,0.2555476,-0.4741873,0.1139992,0.8475012,7.754505,1.396517,-25.41133,1001.57
0.367078781,1.501983,0.04790583,0.1943474,-0.478589,0.1144158,0.8494114,7.754505,1.396517,-25.41133,1001.57
0.369575977,1.625907,-0.01165347,0.1943474,-0.476114,0.1125078,0.8479906,7.386652,1.371599,-26.3035,1001.57
0.372073173,1.563945,0.1074651,0.1331472,-0.4751439,0.1130463,0.8503746,7.386652,1.371599,-26.3035,1001.57
0.374570370,1.811793,0.2265837,0.2555476,-0.4760822,0.1111356,0.8542101,7.386652,1.371599,-26.3035,1001.57
0.377068043,1.873755,0.1074651,0.1943474,-0.4750232,0.1062393,0.8494677,7.386652,1.371599,-26.3035,1001.57
0.379564285,1.935717,-0.01165347,0.1331472,-0.4750257,0.1068147,0.8561509,7.386652,1.371599,-26.3035,1001.57
0.382061958,1.687869,0.04790583,0.1331472,-0.4692519,0.1118067,0.8570672,7.386652,1.371599,-26.3035,1001.57
0.384559154,1.440021,-0.07121277,0.07194699,-0.4713307,0.1185008,0.8527217,7.386652,1.371599,-26.3035,1001.57
0.387056351,1.378058,0.04790583,0.07194699,-0.4737441,0.1164104,0.8455731,7.386652,1.371599,-26.3035,1001.57
0.389553070,1.378058,0.04790583,0.01074678,-0.4761957,0.1168239,0.8441386,7.386652,1.371599,-26.3035,1001.57
0.392050266,1.316096,0.04790583,0.1331472,-0.4746095,0.110669,0.8532572,7.386652,1.371599,-26.3035,1001.57
0.394547939,1.13021,0.1074651,-0.05045342,-0.4727045,0.1130666,0.8479846,7.386652,1.371599,-26.3035,1001.57
0.397045135,1.068248,0.1074651,-0.05045342,-0.4761953,0.1168303,0.8446162,7.386652,1.371599,-26.3035,1001.57
0.399542332,1.006286,0.1670244,-0.1116536,-0.4727851,0.1180098,0.8546367,7.386652,1.371599,-26.3035,1001.57
0.402039051,0.6345134,0.04790583,-0.05045342,-0.4747688,0.1193592,0.8498517,7.386652,1.371599,-26.3035,1001.57
0.404536247,0.8203996,0.04790583,-0.05045342,-0.4741599,0.1125627,0.8489444,7.386652,1.371599,-26.3035,1001.57
0.407033443,0.8203996,0.1074651,-0.05045342,-0.4755732,0.1096129,0.8484886,7.386652,1.371599,-26.3035,1001.57
0.409531116,0.4486271,-0.07121277,0.01074678,-0.4727684,0.1164186,0.8446171,7.386652,1.371599,-26.3035,1001.573
0.412027359,0.3247029,0.1074651,-0.05045342,-0.473715,0.1149997,0.8489268,7.386652,1.371599,-26.3035,1001.573
0.414525032,0.2627408,0.3457023,0.01074678,-0.4775759,0.1125214,0.851335,7.386652,1.371599,-26.3035,1001.573
0.417022228,0.07685452,0.1074651,-0.2952542,-0.4741695,0.1130351,0.8479857,7.386652,1.371599,-26.3035,1001.573
0.419519424,0.01489243,-0.01165347,-0.1728538,-0.4736707,0.1125861,0.8498994,7.01297,1.741058,-25.86269,1001.573
0.422016621,-0.1709938,-0.01165347,-0.1728538,-0.4717146,0.112059,0.8436922,7.01297,1.741058,-25.86269,1001.573
0.424513340,-0.1709938,0.04790583,-0.1728538,-0.4711524,0.1082516,0.8484957,7.01297,1.741058,-25.86269,1001.573
0.427011013,-0.2329559,0.286143,0.01074678,-0.4730622,0.1057831,0.8485145,7.01297,1.741058,-25.86269,1001.573
0.429508209,-0.1709938,0.1074651,-0.1116536,-0.474157,0.1119936,0.8427389,7.01297,1.741058,-25.86269,1001.573
0.432005405,-0.1709938,-0.07121277,-0.1728538,-0.4746809,0.1139114,0.8417702,7.01297,1.741058,-25.86269,1001.573
0.434502125,-0.3568801,0.1670244,-0.1728538,-0.4741677,0.1130609,0.8498963,7.01297,1.741058,-25.86269,1001.573
0.436999321,-0.5427663,0.1074651,-0.2952542,-0.4731966,0.1136123,0.8532354,7.01297,1.741058,-25.86269,1001.573
0.439496517,-0.4808043,0.1074651,-0.4176546,-0.48001,0.1119642,0.8499075,7.01297,1.741058,-25.86269,1001.573
0.441994190,-0.4808043,0.1670244,-0.3564544,-0.4761339,0.1140539,0.8546669,7.01297,1.741058,-25.86269,1001.573
0.444491386,-0.4188422,0.1670244,-0.2952542,-0.4741969,0.1144716,0.8465425,7.01297,1.741058,-25.86269,1001.573
0.446988106,-0.4808043,0.1670244,-0.3564544,-0.4736095,0.1091954,0.8504012,7.01297,1.741058,-25.86269,1001.573
0.449485302,-0.7286526,0.2265837,-0.2952542,-0.4716146,0.1067852,0.8485065,7.01297,1.741058,-25.86269,1001.571
0.451982498,-0.6047285,0.04790583,-0.2952542,-0.4745948,0.1096597,0.8503984,7.01297,1.741058,-25.86269,1001.571
0.454479694,-0.7286526,0.1670244,-0.1728538,-0.4736482,0.1110786,0.8460887,7.01297,1.741058,-25.86269,1001.571
0.456976414,-0.4808043,0.286143,-0.1728538,-0.4717644,0.115003,0.8460596,7.01297,1.741058,-25.86269,1001.571
0.459474087,-0.6666905,0.1670244,-0.1728538,-0.4760922,0.1116016,0.8527737,7.01297,1.741058,-25.86269,1001.571
0.461971283,-0.6666905,0.1670244,-0.1728538,-0.475636,0.113592,0.8556253,7.01297,1.741058,-25.86269,1001.571
0.464468479,-0.6666905,0.286143,-0.234054,-0.4740818,0.108195,0.8489755,7.01297,1.741058,-25.86269,1001.571
0.466965675,-0.6047285,0.3457023,-0.2952542,-0.4766211,0.1134485,0.8465512,7.01297,1.741058,-25.86269,1001.571
0.469462395,-0.6666905,0.4052616,-0.234054,-0.4776019,0.1139773,0.8513247,8.128187,1.027059,-25.85213,1001.571
0.471959591,-0.4188422,0.1670244,-0.1116536,-0.4723438,0.1203952,0.8507981,8.128187,1.027059,-25.85213,1001.571
0.474457264,-0.4808043,0.1074651,0.01074678,-0.4726874,0.1127037,0.8570629,8.128187,1.027059,-25.85213,1001.571
0.476954460,-0.5427663,0.1670244,-0.1728538,-0.47454,0.1067866,0.8532848,8.128187,1.027059,-25.85213,1001.571
0.479451656,-0.2329559,0.1074651,-0.1728538,-0.4756121,0.1121038,0.8532475,8.128187,1.027059,-25.85213,1001.571
0.481948376,-0.3568801,0.3457023,-0.1116536,-0.4726923,0.1126328,0.8518091,8.128187,1.027059,-25.85213,1001.571
0.484445572,-0.294918,0.1670244,-0.1116536,-0.4790873,0.1148712,0.8479755,8.128187,1.027059,-25.85213,1001.571
0.486942768,-0.2329559,0.04790583,-0.234054,-0.4795035,0.111017,0.8508693,8.128187,1.027059,-25.85213,1001.571
0.489440441,-0.4188422,0.1074651,-0.1728538,-0.476591,0.1120506,0.8508602,8.128187,1.027059,-25.85213,1001.569
0.491937160,-0.294918,0.04790583,-0.1116536,-0.4727041,0.113073,0.8484622,8.128187,1.027059,-25.85213,1001.569
0.494434357,-0.1090318,0.04790583,-0.1116536,-0.4771283,0.114997,0.8541831,8.128187,1.027059,-25.85213,1001.569
0.496931553,-0.3568801,0.2265837,-0.234054,-0.4727076,0.1130215,0.8446413,8.128187,1.027059,-25.85213,1001.569
0.499428749,-0.4808043,0.1670244,-0.234054,-0.4750867,0.1095977,0.8465778,8.128187,1.027059,-25.85213,1001.569
0.501926422,-0.4808043,0.2265837,-0.1116536,-0.4756184,0.1120136,0.8465609,8.128187,1.027059,-25.85213,1001.569
0.504422665,-0.4808043,0.3457023,-0.234054,-0.4765193,0.1082005,0.8532759,8.128187,1.027059,-25.85213,1001.569
0.506920338,-0.5427663,0.286143,-0.1116536,-0.4780098,0.1096313,0.8537443,8.128187,1.027059,-25.85213,1001.569
0.509417534,-0.4188422,0.286143,0.01074678,-0.4756061,0.1115799,0.8503853,8.128187,1.027059,-25.85213,1001.569
0.511914730,-0.4808043,0.2265837,-0.05045342,-0.473668,0.1126247,0.852765,8.128187,1.027059,-25.85213,1001.569
0.514411449,-0.6047285,0.1670244,-0.1116536,-0.4732345,0.1155083,0.8498783,8.128187,1.027059,-25.85213,1001.569
0.516908646,-0.6047285,0.2265837,-0.1728538,-0.475654,0.113942,0.8455918,8.128187,1.027059,-25.85213,1001.569
0.519405842,-0.6047285,0.1074651,-0.1728538,-0.4760337,0.1081723,0.8504099,7.760498,1.010638,-26.29784,1001.569
0.521903515,-0.8525768,0.1670244,-0.1116536,-0.4726611,0.1106401,0.848002,7.760498,1.010638,-26.29784,1001.569
0.524400711,-0.8525768,0.286143,-0.05045342,-0.4771141,0.1139813,0.8508467,7.760498,1.010638,-26.29784,1001.569
0.526897430,-0.9145389,0.286143,-0.1728538,-0.4711241,0.1068279,0.8508942,7.760498,1.010638,-26.29784,1001.569
0.529394627,-0.9765009,0.286143,-0.234054,-0.4721341,0.1087674,0.852314,7.760498,1.010638,-26.29784,1001.572
0.531891823,-1.038463,-0.01165347,-0.234054,-0.4775903,0.1129229,0.8451226,7.760498,1.010638,-26.29784,1001.572
0.534389496,-0.9145389,0.2265837,-0.234054,-0.4736767,0.11311,0.8527616,7.760498,1.010638,-26.29784,1001.572
0.536885738,-0.7906147,0.4648209,-0.1728538,-0.4736742,0.1125345,0.8460783,7.760498,1.010638,-26.29784,1001.572
0.539383411,-0.9765009,0.4052616,-0.234054,-0.4755923,0.1105578,0.8465713,7.760498,1.010638,-26.29784,1001.572
0.541880607,-1.224349,0.2265837,-0.1116536,-0.4692668,0.1122018,0.8503771,7.760498,1.010638,-26.29784,1001.572
0.544377804,-1.162387,0.04790583,-0.1728538,-0.4761252,0.1135686,0.8546703,7.760498,1.010638,-26.29784,1001.572
0.546875000,-1.162387,0.3457023,-0.234054,-0.4760711,0.1100748,0.8475303,7.760498,1.010638,-26.29784,1001.572
0.549371719,-1.162387,0.286143,-0.234054,-0.4730613,0.105796,0.8494697,7.760498,1.010638,-26.29784,1001.572
0.551868915,-1.348274,0.1670244,-0.3564544,-0.4741869,0.1140057,0.8479788,7.760498,1.010638,-26.29784,1001.572
0.554366588,-1.162387,0.1074651,-0.1728538,-0.4716857,0.111256,0.8561172,7.760498,1.010638,-26.29784,1001.572
0.556863785,-1.286311,0.1074651,-0.1116536,-0.4697437,0.1117446,0.8532466,7.760498,1.010638,-26.29784,1001.572
0.559360981,-1.224349,0.04790583,-0.234054,-0.4751494,0.1135767,0.8537145,7.760498,1.010638,-26.29784,1001.572
0.561857700,-1.410236,0.04790583,-0.3564544,-0.4726941,0.1126071,0.8498986,7.760498,1.010638,-26.29784,1001.572
0.564354896,-1.286311,-0.01165347,-0.234054,-0.4756774,0.1154365,0.8484471,7.760498,1.010638,-26.29784,1001.572
0.566852569,-1.286311,-0.07121277,-0.1116536,-0.4804511,0.1089711,0.8446748,7.760498,1.010638,-26.29784,1001.572
0.569349766,-1.53416,-0.01165347,-0.1116536,-0.4745843,0.1092002,0.8523123,7.760498,1.010638,-26.29784,1001.57
0.571846485,-1.720046,-0.01165347,-0.2952542,-0.4707851,0.1150627,0.8489246,7.760498,1.010638,-26.29784,1001.57
0.574343681,-1.658084,0.2265837,-0.3564544,-0.474143,0.1115856,0.8484737,7.760498,1.010638,-26.29784,1001.57
0.576840877,-1.348274,0.2265837,-0.3564544,-0.4760519,0.10913,0.8494477,7.760498,1.010638,-26.29784,1001.57
0.579338074,-1.100425,-0.01165347,-0.2952542,-0.4764595,0.1047905,0.8523449,7.760498,1.010638,-26.29784,1001.57
0.581835747,-1.224349,0.1670244,-0.2952542,-0.4716249,0.1078589,0.8561414,7.760498,1.010638,-26.29784,1001.57
0.584331989,-1.348274,-0.01165347,-0.2952542,-0.4794487,0.1081439,0.8537558,7.760498,1.010638,-26.29784,1001.57
0.586829662,-1.472198,0.1670244,-0.4176546,-0.4745747,0.1087278,0.853271,7.760498,1.010638,-26.29784,1001.57
0.589326858,-1.224349,0.04790583,-0.4788548,-0.4716524,0.1086813,0.8451493,7.760498,1.010638,-26.29784,1001.57
0.591824055,-1.224349,-0.07121277,-0.2952542,-0.4736186,0.1096743,0.8499201,7.760498,1.010638,-26.29784,1001.57
0.594320774,-1.162387,0.04790583,-0.234054,-0.4750609,0.1087495,0.8556595,7.760498,1.010638,-26.29784,1001.57
0.596817970,-0.9765009,-0.01165347,-0.234054,-0.4750617,0.1087366,0.8547042,7.760498,1.010638,-26.29784,1001.57
0.599318027,-1.224349,0.04790583,-0.2952542,-0.4697686,0.1126057,0.8451203,7.760498,1.010638,-26.29784,1001.57
0.601812839,-1.53416,-0.01165347,-0.4176546,-0.47468,0.1139243,0.8427254,7.760498,1.010638,-26.29784,1001.57
0.604310036,-1.53416,-0.01165347,-0.2952542,-0.4756152,0.1120588,0.8499042,7.760498,1.010638,-26.29784,1001.57
0.609303951,-1.162387,-0.01165347,-0.2952542,-0.4780051,0.109088,0.8494491,7.760498,1.010638,-26.29784,1001.57
0.609303951,-1.162387,-0.01165347,-0.2952542,-0.4780051,0.109088,0.8494491,7.760498,1.010638,-26.29784,1001.57
0.611805916,-1.224349,-0.1307721,-0.2952542,-0.4755501,0.1087261,0.8547046,7.760498,1.010638,-26.29784,1001.57
0.614298820,-1.348274,-0.07121277,-0.234054,-0.4727328,0.1144903,0.8455861,7.760498,1.010638,-26.29784,1001.57
0.616795540,-1.53416,-0.01165347,-0.2952542,-0.4707001,0.1101839,0.8470487,7.760498,1.010638,-26.29784,1001.57
0.621789932,-1.224349,-0.01165347,-0.2952542,-0.4726667,0.1111705,0.8513418,7.747852,1.74841,-26.31069,1001.57
0.621789932,-1.224349,-0.01165347,-0.2952542,-0.4726667,0.1111705,0.8513418,7.747852,1.74841,-26.31069,1001.57
0.624287128,-1.038463,-0.01165347,-0.2952542,-0.4736832,0.1136275,0.8551462,7.747852,1.74841,-26.31069,1001.57
0.629281044,-1.224349,-0.1307721,-0.2952542,-0.4761287,0.113517,0.8508494,7.747852,1.74841,-26.31069,1001.57
0.631778717,-1.038463,-0.01165347,-0.3564544,-0.4765512,0.1095726,0.8470565,7.747852,1.74841,-26.31069,1001.57
0.634275913,-1.038463,-0.07121277,-0.1728538,-0.4774734,0.106672,0.849466,7.747852,1.74841,-26.31069,1001.57
0.634275913,-1.038463,-0.07121277,-0.1728538,-0.4774734,0.106672,0.849466,7.747852,1.74841,-26.31069,1001.57
0.639269829,-0.9145389,-0.01165347,-0.1728538,-0.4755776,0.1095485,0.8437124,7.747852,1.74841,-26.31069,1001.57
0.639269829,-0.9145389,-0.01165347,-0.1728538,-0.4755776,0.1095485,0.8437124,7.747852,1.74841,-26.31069,1001.57
0.641767025,-0.7906147,-0.1307721,-0.234054,-0.4755111,0.1062352,0.8499457,7.747852,1.74841,-26.31069,1001.57
0.646761894,-0.6047285,-0.3690093,-0.1116536,-0.4706275,0.1063467,0.8504197,7.747852,1.74841,-26.31069,1001.57
0.646761894,-0.6047285,-0.3690093,-0.1116536,-0.4706275,0.1063467,0.8504197,7.747852,1.74841,-26.31069,1001.57
0.651755810,-0.8525768,-0.1903314,-0.234054,-0.474593,0.1096855,0.8523089,7.747852,1.74841,-26.31069,1001.571
0.651755810,-0.8525768,-0.1903314,-0.234054,-0.474593,0.1096855,0.8523089,7.747852,1.74841,-26.31069,1001.571
0.654253006,-0.7906147,-0.1903314,-0.4176546,-0.4759455,0.1033387,0.8518773,7.747852,1.74841,-26.31069,1001.571
0.659247875,-0.5427663,-0.2498907,-0.1728538,-0.4755271,0.1072251,0.8513716,7.747852,1.74841,-26.31069,1001.571
0.661744118,-0.3568801,-0.2498907,-0.1116536,-0.4774877,0.1076877,0.8528025,7.747852,1.74841,-26.31069,1001.571
0.664241791,-0.2329559,-0.30945,-0.05045342,-0.4759925,0.1057136,0.848039,7.747852,1.74841,-26.31069,1001.571
0.666738987,-0.3568801,-0.2498907,0.01074678,-0.474011,0.104332,0.8504361,7.747852,1.74841,-26.31069,1001.571
0.669236183,-0.1709938,-0.30945,0.01074678,-0.4725881,0.1068093,0.8518506,7.386652,1.371599,-26.3035,1001.571
0.671733379,0.1388166,-0.1307721,-0.05045342,-0.4721619,0.1101975,0.8503931,7.386652,1.371599,-26.3035,1001.571
0.674230099,-0.04706966,-0.2498907,0.01074678,-0.4780025,0.1091267,0.8523148,7.386652,1.371599,-26.3035,1001.571
0.676727295,-0.04706966,-0.1903314,0.07194699,-0.4755723,0.1096258,0.8494439,7.386652,1.371599,-26.3035,1001.571
0.679224968,0.01489243,-0.1903314,0.01074678,-0.4721628,0.1101846,0.8494378,7.386652,1.371599,-26.3035,1001.571
0.681722164,0.01489243,-0.2498907,0.01074678,-0.4740384,0.1057685,0.8489928,7.386652,1.371599,-26.3035,1001.571
0.684219360,0.1388166,-0.1903314,-0.05045342,-0.471608,0.1068818,0.8556708,7.386652,1.371599,-26.3035,1001.571
0.686716080,0.1388166,-0.1307721,0.1943474,-0.4726536,0.1107496,0.8561215,7.386652,1.371599,-26.3035,1001.571
0.689213276,0.01489243,-0.2498907,0.1943474,-0.4741047,0.109696,0.8523085,7.386652,1.371599,-26.3035,1001.571
0.691710949,-0.04706966,-0.30945,0.07194699,-0.4701713,0.108337,0.8532712,7.386652,1.371599,-26.3035,1001.569
0.694208145,0.01489243,-0.30945,0.1943474,-0.4706349,0.1068513,0.8518491,7.386652,1.371599,-26.3035,1001.569
0.696704864,0.07685452,-0.4881279,0.07194699,-0.4760688,0.1101071,0.8499184,7.386652,1.371599,-26.3035,1001.569
0.699202061,0.2627408,-0.4881279,0.07194699,-0.476088,0.1110519,0.848001,7.386652,1.371599,-26.3035,1001.569
0.701699257,0.01489243,-0.3690093,0.07194699,-0.4755298,0.1071865,0.8485059,7.386652,1.371599,-26.3035,1001.569
0.704196453,-0.1090318,-0.4285686,0.01074678,-0.4707239,0.1116721,0.8494264,7.386652,1.371599,-26.3035,1001.569
0.706694126,0.01489243,-0.4881279,0.01074678,-0.4745665,0.1082361,0.8527969,7.386652,1.371599,-26.3035,1001.569
0.709190369,0.01489243,-0.4881279,0.1943474,-0.4784322,0.1056869,0.8499513,7.386652,1.371599,-26.3035,1001.569
0.711688042,0.07685452,-0.2498907,0.2555476,-0.4745015,0.1042892,0.8480483,7.386652,1.371599,-26.3035,1001.569
0.714185238,0.01489243,-0.5476872,0.1331472,-0.4735703,0.1073187,0.8551911,7.386652,1.371599,-26.3035,1001.569
0.716682434,0.07685452,-0.4881279,0.07194699,-0.4745774,0.1086891,0.8504053,7.386652,1.371599,-26.3035,1001.569
0.719179153,0.07685452,-0.3690093,0.1331472,-0.4746456,0.1125908,0.8518105,7.399463,0.6423242,-25.84418,1001.569
0.721676350,0.1388166,-0.4881279,0.01074678,-0.4735752,0.1072478,0.8499374,7.399463,0.6423242,-25.84418,1001.569
0.724174023,0.4486271,-0.6668057,0.1331472,-0.4750314,0.106731,0.8499419,7.399463,0.6423242,-25.84418,1001.569
0.726671219,0.4486271,-0.4881279,0.2555476,-0.4750337,0.1066988,0.8475538,7.399463,0.6423242,-25.84418,1001.569
0.729168415,0.2627408,-0.3690093,0.1943474,-0.4746121,0.1106303,0.8503915,7.399463,0.6423242,-25.84418,1001.569
0.731665134,0.3247029,-0.5476872,0.1943474,-0.4745739,0.1087407,0.8542263,7.399463,0.6423242,-25.84418,1001.571
0.734162331,0.386665,-0.4285686,0.2555476,-0.4765238,0.108136,0.8484997,7.399463,0.6423242,-25.84418,1001.571
0.736659527,0.4486271,-0.30945,0.377948,-0.4775565,0.1109688,0.8441811,7.399463,0.6423242,-25.84418,1001.571
0.739157200,0.5105891,-0.4285686,0.377948,-0.4760276,0.1076484,0.8475476,7.399463,0.6423242,-25.84418,1001.571
0.741653442,0.386665,-0.4881279,0.2555476,-0.4716914,0.1111722,0.8499082,7.399463,0.6423242,-25.84418,1001.571
0.744151115,0.2627408,-0.5476872,0.2555476,-0.4737524,0.1169022,0.8460472,7.399463,0.6423242,-25.84418,1001.571
0.746648312,0.4486271,-0.3690093,0.377948,-0.4730955,0.1077436,0.8499336,7.399463,0.6423242,-25.84418,1001.571
0.749145508,0.5105891,-0.30945,0.3167478,-0.4711789,0.109701,0.8480077,7.399463,0.6423242,-25.84418,1001.571
0.751642704,0.6345134,-0.4881279,0.1331472,-0.4706553,0.1077768,0.8484988,7.399463,0.6423242,-25.84418,1001.571
0.754139423,0.5105891,-0.30945,0.07194699,-0.4706157,0.1059065,0.8537665,7.399463,0.6423242,-25.84418,1001.571
0.756637096,0.3247029,-0.1903314,0.377948,-0.4711292,0.1073648,0.8547117,7.399463,0.6423242,-25.84418,1001.571
0.759134293,0.386665,-0.4285686,0.3167478,-0.4736286,0.1101402,0.8484837,7.399463,0.6423242,-25.84418,1001.571
0.761631489,0.5725513,-0.5476872,0.2555476,-0.4725565,0.104823,0.8485211,7.399463,0.6423242,-25.84418,1001.571
0.764128208,0.5105891,-0.3690093,0.4391482,-0.4716683,0.1102854,0.8561242,7.399463,0.6423242,-25.84418,1001.571
0.766625404,0.5105891,-0.1903314,0.5615486,-0.4726311,0.1092422,0.8523109,7.399463,0.6423242,-25.84418,1001.571
0.769122601,0.4486271,-0.1307721,0.5003484,-0.4706992,0.1101968,0.8480039,7.019128,1.363675,-26.30273,1001.571
0.771620274,0.386665,-0.4285686,0.3167478,-0.4712105,0.1116873,0.8513373,7.019128,1.363675,-26.30273,1001.57
0.774117470,0.5105891,-0.3690093,0.4391482,-0.4760606,0.1096153,0.8494442,7.019128,1.363675,-26.30273,1001.57
0.776614189,0.386665,-0.1307721,0.3167478,-0.4736391,0.1105998,0.8465698,7.019128,1.363675,-26.30273,1001.57
0.779111385,0.2007787,-0.1307721,0.377948,-0.4711566,0.1088013,0.8532684,7.019128,1.363675,-26.30273,1001.57
0.781608581,0.2627408,-0.1903314,0.4391482,-0.4730669,0.1063264,0.8528096,7.019128,1.363675,-26.30273,1001.57
0.784105778,0.5725513,-0.4285686,0.3167478,-0.4726524,0.1101548,0.8480054,7.019128,1.363675,-26.30273,1001.57
0.786603451,0.5105891,-0.4285686,0.4391482,-0.4766235,0.114024,0.8532344,7.019128,1.363675,-26.30273,1001.57
0.789100170,0.2007787,-0.1903314,0.377948,-0.4731129,0.1087142,0.8499267,7.019128,1.363675,-26.30273,1001.57
0.791597366,0.01489243,-0.3690093,0.3167478,-0.4663476,0.113332,0.8575323,7.019128,1.363675,-26.30273,1001.57
0.794094562,-0.04706966,-0.5476872,0.2555476,-0.4722608,0.1160984,0.856083,7.019128,1.363675,-26.30273,1001.57
0.796591759,-0.2329559,-0.5476872,0.2555476,-0.4711927,0.1107232,0.8518218,7.019128,1.363675,-26.30273,1001.57
0.799088478,-0.2329559,-0.4881279,0.1943474,-0.472721,0.1140501,0.8489329,7.019128,1.363675,-26.30273,1001.57
0.801585674,-0.294918,-0.4285686,0.2555476,-0.4726329,0.1092164,0.8504004,7.019128,1.363675,-26.30273,1001.57
0.804083347,-0.04706966,-0.3690093,0.3167478,-0.4716796,0.110732,0.853255,7.019128,1.363675,-26.30273,1001.57
0.806580543,0.2007787,-0.4285686,0.4391482,-0.4771132,0.1139942,0.8518019,7.019128,1.363675,-26.30273,1001.57
0.809077740,0.07685452,-0.4881279,0.2555476,-0.4741424,0.1122062,0.8585002,7.019128,1.363675,-26.30273,1001.57
0.811574459,-0.04706966,-0.6668057,0.377948,-0.4755371,0.1076911,0.8499354,7.019128,1.363675,-26.30273,1001.57
0.814075947,0.07685452,-0.6072465,0.3167478,-0.474567,0.1082296,0.8523192,7.019128,1.363675,-26.30273,1001.57
0.816568851,0.1388166,-0.4285686,0.3167478,-0.473165,0.111626,0.8499059,7.019128,1.363675,-26.30273,1001.57
0.819066524,0.1388166,-0.4285686,0.4391482,-0.4716367,0.1082991,0.8527946,7.01297,1.741058,-25.86269,1001.57
0.821563244,0.2007787,-0.3690093,0.377948,-0.4726364,0.1091649,0.8465795,7.01297,1.741058,-25.86269,1001.57
0.824060440,0.2007787,-0.4881279,0.2555476,-0.4726954,0.1125877,0.8484657,7.01297,1.741058,-25.86269,1001.57
0.826557636,0.2007787,-0.5476872,0.4391482,-0.4741708,0.1130158,0.8465529,7.01297,1.741058,-25.86269,1001.57
0.829054832,0.2627408,-0.4285686,0.5003484,-0.4741036,0.1091012,0.8441924,7.01297,1.741058,-25.86269,1001.57
0.831552505,0.4486271,-0.4285686,0.377948,-0.4750822,0.1096621,0.851354,7.01297,1.741058,-25.86269,1001.57
0.834048748,0.386665,-0.30945,0.5003484,-0.4726493,0.1101999,0.8513488,7.01297,1.741058,-25.86269,1001.57
0.836546421,0.2007787,-0.3690093,0.4391482,-0.472171,0.1106764,0.849912,7.01297,1.741058,-25.86269,1001.57
0.839043617,0.3247029,-0.1903314,0.4391482,-0.4691929,0.1083838,0.8551809,7.01297,1.741058,-25.86269,1001.57
0.841540813,0.5105891,-0.1307721,0.5003484,-0.4746295,0.1116009,0.8503846,7.01297,1.741058,-25.86269,1001.57
0.844038010,0.386665,-0.4285686,0.4391482,-0.4760562,0.1096798,0.8542204,7.01297,1.741058,-25.86269,1001.57
0.846534729,0.3247029,-0.4881279,0.5003484,-0.4735638,0.1068012,0.8528065,7.01297,1.741058,-25.86269,1001.57
0.849031925,0.386665,-0.3690093,0.5003484,-0.4745605,0.1077121,0.8499346,7.01297,1.741058,-25.86269,1001.57
0.851529598,0.3247029,-0.30945,0.4391482,-0.4726624,0.1106208,0.8465691,7.01297,1.741058,-25.86269,1001.572
0.854026794,0.386665,-0.1903314,0.5003484,-0.4692681,0.1121824,0.8489442,7.01297,1.741058,-25.86269,1001.572
0.856523514,0.3247029,-0.01165347,0.377948,-0.4732258,0.1150231,0.8498817,7.01297,1.741058,-25.86269,1001.572
0.859020710,0.3247029,0.04790583,0.2555476,-0.4740315,0.1052575,0.8470858,7.01297,1.741058,-25.86269,1001.572
0.861517906,0.1388166,-0.2498907,0.377948,-0.4716845,0.1106611,0.8480012,7.01297,1.741058,-25.86269,1001.572
0.864015579,0.5105891,-0.4881279,0.4391482,-0.4727635,0.1164894,0.8498709,7.01297,1.741058,-25.86269,1001.572
0.866512775,0.4486271,-0.2498907,0.6227488,-0.4673496,0.1141656,0.848929,7.01297,1.741058,-25.86269,1001.572
0.869009495,0.3247029,-0.1903314,0.377948,-0.4722779,0.1164613,0.8470048,7.75434,1.38802,-25.85779,1001.572
0.871506691,0.3247029,-0.2498907,0.3167478,-0.4770955,0.1124159,0.8427376,7.75434,1.38802,-25.85779,1001.572
0.874003887,0.386665,-0.3690093,0.4391482,-0.4736139,0.109131,0.8456249,7.75434,1.38802,-25.85779,1001.572
0.876501083,0.2627408,-0.30945,0.5003484,-0.4741361,0.1110746,0.8465667,7.75434,1.38802,-25.85779,1001.572
0.878997803,0.5105891,-0.30945,0.683949,-0.47068,0.109252,0.8499213,7.75434,1.38802,-25.85779,1001.572
0.881494999,0.6345134,-0.3690093,0.5615486,-0.473076,0.1068052,0.8523285,7.75434,1.38802,-25.85779,1001.572
0.883992672,0.6345134,-0.4285686,0.5615486,-0.4818989,0.1085767,0.8537541,7.75434,1.38802,-25.85779,1001.572
0.886489868,0.8203996,-0.1903314,0.6227488,-0.4784808,0.1086502,0.8537515,7.75434,1.38802,-25.85779,1001.572
0.888987064,1.13021,-0.30945,0.6227488,-0.4707673,0.1140985,0.8494091,7.75434,1.38802,-25.85779,1001.572
0.891483784,1.068248,-0.4285686,0.5615486,-0.4702365,0.1116697,0.8484708,7.75434,1.38802,-25.85779,1001.569
0.893980980,1.13021,-0.4285686,0.5003484,-0.4722122,0.1131351,0.8522828,7.75434,1.38802,-25.85779,1001.569
0.896478653,1.006286,-0.2498907,0.6227488,-0.4697558,0.1127925,0.8589712,7.75434,1.38802,-25.85779,1001.569
0.898975849,0.9443238,-0.5476872,0.5003484,-0.4726068,0.1077606,0.8504108,7.75434,1.38802,-25.85779,1001.569
0.901472568,0.8823617,-0.4285686,0.4391482,-0.4726767,0.1116365,0.8499056,7.75434,1.38802,-25.85779,1001.569
0.903969765,0.8203996,-0.1903314,0.377948,-0.4731521,0.1105909,0.8451366,7.75434,1.38802,-25.85779,1001.569
0.906466961,0.8203996,-0.1903314,0.5003484,-0.4731701,0.1121628,0.8537234,7.75434,1.38802,-25.85779,1001.569
0.908964157,0.8203996,-0.1903314,0.5003484,-0.4736273,0.1101596,0.8499166,7.75434,1.38802,-25.85779,1001.569
0.911461830,1.006286,-0.30945,0.5615486,-0.4726128,0.1082845,0.853273,7.75434,1.38802,-25.85779,1001.569
0.913958073,0.9443238,-0.2498907,0.4391482,-0.4702307,0.1117534,0.8546798,7.75434,1.38802,-25.85779,1001.569
0.916455746,0.9443238,-0.30945,0.6227488,-0.4721214,0.1083401,0.856616,7.75434,1.38802,-25.85779,1001.569
0.918952942,1.068248,-0.2498907,0.5615486,-0.4712178,0.1121919,0.8527666,7.386652,1.371599,-26.3035,1001.569
0.921450138,0.8823617,-0.1307721,0.683949,-0.4713013,0.1164823,0.8470041,7.386652,1.371599,-26.3035,1001.569
0.923946857,1.006286,-0.07121277,0.5003484,-0.4687603,0.1112545,0.8513389,7.386652,1.371599,-26.3035,1001.569
0.926444054,0.8823617,-0.07121277,0.4391482,-0.4697368,0.1112335,0.8513396,7.386652,1.371599,-26.3035,1001.569
0.928941727,0.9443238,-0.2498907,0.5615486,-0.4683249,0.1141639,0.8503626,7.386652,1.371599,-26.3035,1001.569
0.931438923,1.006286,0.04790583,0.5003484,-0.469288,0.1137285,0.8556206,7.386652,1.371599,-26.3035,1001.573
0.933936119,0.8203996,0.04790583,0.6227488,-0.4746538,0.1130826,0.8522847,7.386652,1.371599,-26.3035,1001.573
0.936432838,0.8823617,0.04790583,0.5615486,-0.4745919,0.1090907,0.8441928,7.386652,1.371599,-26.3035,1001.573
0.938930035,1.006286,0.04790583,0.3167478,-0.4721479,0.1097896,0.856128,7.386652,1.371599,-26.3035,1001.573
0.941427231,1.006286,0.1074651,0.5003484,-0.4712156,0.1122242,0.8551547,7.386652,1.371599,-26.3035,1001.573
0.943924904,1.068248,0.1074651,0.683949,-0.4722423,0.114533,0.8479739,7.386652,1.371599,-26.3035,1001.573
0.946422100,1.068248,0.1074651,0.6227488,-0.4708034,0.1160204,0.8479624,7.386652,1.371599,-26.3035,1001.573
0.948918819,0.9443238,0.04790583,0.4391482,-0.4683289,0.1141059,0.846064,7.386652,1.371599,-26.3035,1001.573
0.951416016,1.13021,0.1670244,0.5003484,-0.4702752,0.1135529,0.8441584,7.386652,1.371599,-26.3035,1001.573
0.953913212,1.068248,0.4052616,0.5615486,-0.4721918,0.1122096,0.8556331,7.386652,1.371599,-26.3035,1001.573
0.956410408,0.9443238,0.4648209,0.377948,-0.4707491,0.1131408,0.8503713,7.386652,1.371599,-26.3035,1001.573
0.958907127,1.006286,0.4052616,0.5003484,-0.4721935,0.1121838,0.8537226,7.386652,1.371599,-26.3035,1001.573
0.961408615,1.068248,0.3457023,0.6227488,-0.4691615,0.1070052,0.8609228,7.386652,1.371599,-26.3035,1001.573
0.963901997,1.068248,0.286143,0.5615486,-0.4761439,0.1145198,0.8532306,7.386652,1.371599,-26.3035,1001.573
0.966399193,0.8823617,0.1670244,0.5615486,-0.4707555,0.1136583,0.8527559,7.386652,1.371599,-26.3035,1001.573
0.968896389,1.13021,0.4052616,0.5615486,-0.4731588,0.1117162,0.8565925,7.760663,1.019135,-25.85137,1001.573
0.971393108,1.254134,0.4648209,0.4391482,-0.4751205,0.1115517,0.8475192,7.760663,1.019135,-25.85137,1001.573
0.973890305,1.625907,0.4052616,0.3167478,-0.4732064,0.1134705,0.8427278,7.760663,1.019135,-25.85137,1001.573
0.976387978,1.563945,0.1074651,0.5003484,-0.4762443,0.1197872,0.8479388,7.760663,1.019135,-25.85137,1001.573
0.978885174,1.378058,0.1074651,0.4391482,-0.4714589,0.1251983,0.845509,7.760663,1.019135,-25.85137,1001.573
0.981381893,1.006286,0.04790583,0.377948,-0.4670258,0.1234032,0.8493405,7.760663,1.019135,-25.85137,1001.573
0.983879089,0.7584376,0.3457023,0.2555476,-0.4699735,0.1243043,0.8488582,7.760663,1.019135,-25.85137,1001.573
0.986376286,0.7584376,0.286143,0.1943474,-0.4703867,0.1198811,0.8455463,7.760663,1.019135,-25.85137,1001.573
0.988873959,0.8203996,0.3457023,0.01074678,-0.46688,0.1151274,0.8474889,7.760663,1.019135,-25.85137,1001.573
0.991371155,0.8203996,0.04790583,0.07194699,-0.4721697,0.1106957,0.8513449,7.760663,1.019135,-25.85137,1001.573
0.993867874,1.068248,0.3457023,-0.05045342,-0.4751069,0.1111373,0.8527765,7.760663,1.019135,-25.85137,1001.573
0.996365070,0.6964754,0.8221768,-0.1728538,-0.478631,0.1186976,0.8789961,7.760663,1.019135,-25.85137,1001.573
0.998862267,-1.472198,1.000855,-0.540055,-0.4811382,0.1231932,0.8923401,7.760663,1.019135,-25.85137,1001.573
1.001359463,-3.888719,1.060414,-1.152057,-0.4737839,0.1207245,0.8775458,7.760663,1.019135,-25.85137,1001.573
1.003856182,-5.251885,1.239092,-1.396858,-0.4787498,0.1243086,0.8631933,7.760663,1.019135,-25.85137,1001.573
1.006353378,-5.871506,0.9412953,-1.641659,-0.4780548,0.1114243,0.8427452,7.760663,1.019135,-25.85137,1001.573
1.008851051,-5.251885,0.7626175,-1.458058,-0.4730793,0.106146,0.8394364,7.760663,1.019135,-25.85137,1001.573
1.011348248,-4.694226,0.9412953,-1.029657,-0.4702583,0.1125758,0.8436877,7.760663,1.019135,-25.85137,1001.573
1.013845444,-4.632264,0.881736,-1.152057,-0.4703127,0.1166773,0.8598991,7.760663,1.019135,-25.85137,1001.575
1.016342163,-5.809544,1.060414,-1.702859,-0.4727692,0.1182417,0.871831,7.760663,1.019135,-25.85137,1001.575
1.018839359,-6.553089,1.239092,-1.580458,-0.4778159,0.0983857,0.8476148,7.773309,0.2813628,-25.83852,1001.575
1.021337032,-5.499733,0.881736,-1.335658,-0.480145,0.09079599,0.8285637,7.773309,0.2813628,-25.83852,1001.575
1.023834229,-3.826757,0.5839396,-1.274457,-0.4721245,0.1070731,0.8346525,7.773309,0.2813628,-25.83852,1001.575
1.026331425,-3.207136,0.6434988,-1.152057,-0.4713823,0.121419,0.8531786,7.773309,0.2813628,-25.83852,1001.575
1.028828144,-3.826757,0.8221768,-1.213257,-0.4723541,0.1214689,0.8584331,7.773309,0.2813628,-25.83852,1001.575
1.031325340,-4.942075,0.9412953,-1.274457,-0.4751446,0.1136476,0.8589683,7.773309,0.2813628,-25.83852,1001.575
1.033822536,-5.99543,1.000855,-1.458058,-0.4687469,0.1114478,0.8656675,7.773309,0.2813628,-25.83852,1001.575
1.036320210,-7.358596,1.239092,-1.641659,-0.4693437,0.1178106,0.8703991,7.773309,0.2813628,-25.83852,1001.575
1.038816452,-9.589231,1.715566,-2.13126,-0.4781535,0.1191612,0.8766042,7.773309,0.2813628,-25.83852,1001.575
1.041314125,-12.43949,2.370718,-2.620862,-0.4771466,0.1171766,0.8718412,7.773309,0.2813628,-25.83852,1001.575
1.043811321,-12.99715,2.906752,-2.376061,-0.4903705,0.08855046,0.8223761,7.773309,0.2813628,-25.83852,1001.575
1.046308517,-8.473914,2.19204,-1.886459,-0.4743235,0.06382072,0.7991375,7.773309,0.2813628,-25.83852,1001.575
1.048805714,-4.818151,0.4648209,-1.458058,-0.4542108,0.08968858,0.8490959,7.773309,0.2813628,-25.83852,1001.575
1.051307678,-4.880113,0.5243802,-0.9684564,-0.4611027,0.1213927,0.8708463,7.773309,0.2813628,-25.83852,1001.575
1.053800106,-5.561696,1.239092,-1.029657,-0.4846544,0.1259755,0.8521985,7.773309,0.2813628,-25.83852,1001.572
1.056297302,-5.375809,1.656007,-1.213257,-0.4886585,0.1040426,0.8523574,7.773309,0.2813628,-25.83852,1001.572
1.058794498,-5.499733,1.298651,-1.090857,-0.4846523,0.09946053,0.86624,7.773309,0.2813628,-25.83852,1001.572
1.061291218,-5.933468,1.239092,-1.152057,-0.4816806,0.09646358,0.8552733,7.773309,0.2813628,-25.83852,1001.572
1.063788414,-5.189923,1.000855,-0.6624554,-0.4767106,0.09049376,0.8366841,7.773309,0.2813628,-25.83852,1001.572
1.066285610,-3.702833,0.8221768,-0.7848558,-0.4704503,0.0954704,0.8356897,7.773309,0.2813628,-25.83852,1001.572
1.068783283,-2.897326,0.881736,-0.7236556,-0.4662681,0.1077618,0.8403761,7.75434,1.38802,-25.85779,1001.572
1.071280479,-2.587516,0.9412953,-0.4788548,-0.469796,0.1140422,0.843677,7.75434,1.38802,-25.85779,1001.572
1.073777199,-2.71144,0.7626175,-0.540055,-0.4694084,0.1199278,0.8474561,7.75434,1.38802,-25.85779,1001.572
1.076274395,-3.269099,0.7626175,-0.6012552,-0.4737491,0.1175615,0.8589395,7.75434,1.38802,-25.85779,1001.572
1.078771591,-4.19853,0.7626175,-0.6624554,-0.475613,0.112091,0.8522923,7.75434,1.38802,-25.85779,1001.572
1.081268787,-4.446378,0.9412953,-0.7236556,-0.4730566,0.1052527,0.8451747,7.75434,1.38802,-25.85779,1001.572
1.083766460,-3.826757,0.881736,-0.846056,-0.4715042,0.09982995,0.8366144,7.75434,1.38802,-25.85779,1001.572
1.086263180,-2.649478,0.4052616,-0.7848558,-0.4709865,0.09782194,0.8308965,7.75434,1.38802,-25.85779,1001.572
1.088760376,-1.720046,0.1670244,-0.2952542,-0.463758,0.103919,0.8394467,7.75434,1.38802,-25.85779,1001.572
1.091257572,-1.286311,0.4052616,-0.1728538,-0.4696241,0.1043105,0.8418357,7.75434,1.38802,-25.85779,1001.572
1.093754768,-1.038463,0.4052616,-0.3564544,-0.4735623,0.1062128,0.8451681,7.75434,1.38802,-25.85779,1001.574
1.096251488,-0.7906147,0.286143,-0.3564544,-0.4740644,0.1072244,0.8489825,7.75434,1.38802,-25.85779,1001.574
1.098748684,-0.9765009,0.1074651,-0.234054,-0.4750506,0.1076758,0.8480245,7.75434,1.38802,-25.85779,1001.574
1.101246357,-1.224349,0.04790583,-0.1116536,-0.4745411,0.1061596,0.8427807,7.75434,1.38802,-25.85779,1001.574
1.103743553,-1.038463,-0.07121277,-0.1116536,-0.4720853,0.1051964,0.8394426,7.75434,1.38802,-25.85779,1001.574
1.106240749,-0.6047285,-0.1307721,-0.2952542,-0.4711052,0.1052689,0.8432627,7.75434,1.38802,-25.85779,1001.574
1.108737469,-0.5427663,-0.01165347,-0.1116536,-0.4740606,0.1066682,0.8437321,7.75434,1.38802,-25.85779,1001.574
1.111234665,-0.3568801,-0.2498907,-0.1116536,-0.4726008,0.1072366,0.8475485,7.75434,1.38802,-25.85779,1001.574
1.113731861,-0.294918,-0.2498907,0.01074678,-0.4721102,0.1072793,0.8499363,7.75434,1.38802,-25.85779,1001.574
1.116229534,-0.2329559,0.1074651,0.1331472,-0.4745787,0.1086698,0.8489724,7.75434,1.38802,-25.85779,1001.574
1.118726254,-0.3568801,-0.1307721,0.07194699,-0.4740506,0.1062023,0.8451685,8.128328,1.034342,-25.46945,1001.574
1.121223450,-0.294918,-0.30945,-0.1116536,-0.4725453,0.1037622,0.8418413,8.128328,1.034342,-25.46945,1001.574
1.123720646,-0.1090318,-0.2498907,-0.234054,-0.4730234,0.1038999,0.8528269,8.128328,1.034342,-25.46945,1001.574
1.126217842,-0.2329559,-0.1903314,0.01074678,-0.4755353,0.1077169,0.8518458,8.128328,1.034342,-25.46945,1001.574
1.128715515,-0.294918,-0.2498907,0.01074678,-0.4745531,0.1072075,0.8485052,8.128328,1.034342,-25.46945,1001.574
1.131211758,-0.1090318,-0.1903314,0.01074678,-0.471543,0.102935,0.8509223,8.128328,1.034342,-25.46945,1001.574
1.133709431,-0.2329559,-0.1307721,-0.05045342,-0.470054,0.1020926,0.8580923,8.128328,1.034342,-25.46945,1001.574
1.136206627,-0.294918,-0.3690093,0.07194699,-0.472504,0.1019177,0.8490194,8.128328,1.034342,-25.46945,1001.574
1.138703823,-0.1090318,-0.2498907,0.07194699,-0.4714866,0.09947351,0.8461702,8.128328,1.034342,-25.46945,1001.574
1.141200542,-0.1709938,-0.07121277,0.07194699,-0.4666781,0.1039978,0.8499565,8.128328,1.034342,-25.46945,1001.574
1.143697739,-0.1709938,-0.1903314,0.07194699,-0.4686369,0.1044862,0.8532978,8.128328,1.034342,-25.46945,1001.574
1.146194935,0.07685452,-0.07121277,0.1943474,-0.4730408,0.1048705,0.85282,8.128328,1.034342,-25.46945,1001.574
1.148692608,0.1388166,0.2265837,0.1331472,-0.4711922,0.1107296,0.8522994,8.128328,1.034342,-25.46945,1001.574
1.151189804,0.01489243,0.1074651,0.1943474,-0.4735543,0.1063287,0.8537652,8.128328,1.034342,-25.46945,1001.574
1.153686523,-0.1709938,0.286143,0.1943474,-0.4744111,0.09948781,0.8519039,8.128328,1.034342,-25.46945,1001.574
1.156183720,-0.04706966,0.4052616,0.07194699,-0.4730399,0.1048834,0.8537753,8.128328,1.034342,-25.46945,1001.574
1.158680916,0.01489243,0.5839396,0.1331472,-0.4740052,0.1044157,0.8566451,8.128328,1.034342,-25.46945,1001.574
1.161178589,0.01489243,0.4648209,0.3167478,-0.4760201,0.1077579,0.8556671,8.128328,1.034342,-25.46945,1001.574
1.163674831,0.386665,0.5243802,0.1943474,-0.4769934,0.1071743,0.8499399,8.128328,1.034342,-25.46945,1001.574
1.166172504,0.2007787,0.5839396,0.1331472,-0.4756625,0.1150414,0.8551372,8.128328,1.034342,-25.46945,1001.574
1.168669701,-0.04706966,0.6434988,0.1331472,-0.4761292,0.1135106,0.8503718,7.754175,1.379524,-26.30426,1001.574
1.171166897,-0.04706966,0.4648209,0.07194699,-0.4765398,0.109126,0.8499257,7.754175,1.379524,-26.30426,1001.574
1.173664093,-0.1709938,0.4648209,0.07194699,-0.479106,0.1158225,0.8465357,7.754175,1.379524,-26.30426,1001.577
1.176160812,-0.1709938,0.5243802,0.01074678,-0.4716627,0.109755,0.8527843,7.754175,1.379524,-26.30426,1001.577
1.178658009,-0.1090318,0.4648209,-0.05045342,-0.4749208,0.1003899,0.8475987,7.754175,1.379524,-26.30426,1001.577
1.181155682,-0.3568801,0.3457023,-0.1116536,-0.4754694,0.1037829,0.8480525,7.754175,1.379524,-26.30426,1001.577
1.183652878,-0.5427663,0.286143,-0.05045342,-0.4758887,0.09988361,0.8476029,7.754175,1.379524,-26.30426,1001.577
1.186150074,-0.6047285,0.2265837,0.01074678,-0.4765031,0.1066028,0.8427787,7.754175,1.379524,-26.30426,1001.577
1.188646793,-0.5427663,0.1074651,-0.1116536,-0.473554,0.105721,0.844694,7.754175,1.379524,-26.30426,1001.577
1.191143990,-0.6666905,0.1670244,0.1331472,-0.4697014,0.1086911,0.8427598,7.754175,1.379524,-26.30426,1001.577
1.193641663,-0.9145389,0.04790583,0.07194699,-0.4740123,0.1043126,0.8490032,7.754175,1.379524,-26.30426,1001.577
1.196138859,-1.038463,0.04790583,0.07194699,-0.4716195,0.1067143,0.8432527,7.754175,1.379524,-26.30426,1001.577
1.198635578,-1.100425,-0.2498907,-0.05045342,-0.4721269,0.1076486,0.8413357,7.754175,1.379524,-26.30426,1001.577
1.201132774,-1.162387,-0.1903314,0.07194699,-0.4725166,0.102345,0.8447174,7.754175,1.379524,-26.30426,1001.577
1.203629970,-1.410236,-0.1307721,-0.1116536,-0.4691101,0.1034728,0.850917,7.754175,1.379524,-26.30426,1001.577
1.206127167,-1.472198,-0.07121277,-0.234054,-0.4725941,0.1073332,0.8547128,7.754175,1.379524,-26.30426,1001.577
1.208624840,-1.286311,0.1074651,-0.05045342,-0.4736017,0.1086973,0.8494493,7.754175,1.379524,-26.30426,1001.577
1.211121082,-1.224349,-0.1307721,-0.05045342,-0.4760653,0.1101586,0.8537394,7.754175,1.379524,-26.30426,1001.577
1.213618755,-1.472198,-0.07121277,-0.05045342,-0.4740486,0.1068422,0.8566278,7.754175,1.379524,-26.30426,1001.573
1.216115951,-1.782008,0.04790583,-0.1116536,-0.4746061,0.1101064,0.8475292,7.754175,1.379524,-26.30426,1001.573
1.218613148,-1.720046,-0.07121277,-0.1728538,-0.4730782,0.106773,0.8499405,7.75434,1.38802,-25.85779,1001.573
1.221109867,-1.782008,0.04790583,-0.234054,-0.4696453,0.1058373,0.8470791,7.75434,1.38802,-25.85779,1001.573
1.223607063,-1.782008,0.1074651,-0.234054,-0.4725899,0.1067835,0.8499401,7.75434,1.38802,-25.85779,1001.573
1.226104736,-1.84397,0.04790583,-0.234054,-0.4696104,0.1045103,0.8566418,7.75434,1.38802,-25.85779,1001.573
1.228601932,-1.967895,0.1670244,-0.2952542,-0.4706097,0.1053825,0.8509042,7.75434,1.38802,-25.85779,1001.573
1.231099129,-2.215743,0.3457023,-0.2952542,-0.4750353,0.1072872,0.8551922,7.75434,1.38802,-25.85779,1001.573
1.233595848,-2.215743,0.1074651,-0.234054,-0.4739531,0.1015039,0.8566658,7.75434,1.38802,-25.85779,1001.573
1.236093044,-2.277705,0.286143,-0.3564544,-0.4729293,0.09854228,0.8514321,7.75434,1.38802,-25.85779,1001.573
1.238590240,-2.277705,0.286143,-0.2952542,-0.4778064,0.09791329,0.8485734,7.75434,1.38802,-25.85779,1001.573
1.241087913,-2.091819,0.4052616,-0.1116536,-0.4753608,0.0980238,0.8528702,7.75434,1.38802,-25.85779,1001.573
1.243585110,-2.153781,0.3457023,-0.1728538,-0.4768912,0.1019327,0.8571422,7.75434,1.38802,-25.85779,1001.573
1.246081829,-1.84397,0.5839396,-0.1728538,-0.4783715,0.1022898,0.8499756,7.75434,1.38802,-25.85779,1001.573
1.248579025,-1.720046,0.7030581,-0.1728538,-0.4695627,0.101534,0.8518864,7.75434,1.38802,-25.85779,1001.573
1.251076221,-1.720046,0.7030581,0.07194699,-0.4787389,0.09608641,0.858618,7.75434,1.38802,-25.85779,1001.573
1.253573417,-1.472198,0.7626175,0.1331472,-0.481072,0.0896606,0.8538886,7.75434,1.38802,-25.85779,1001.574
1.256070137,-1.410236,0.4648209,0.07194699,-0.4767548,0.09474341,0.8638807,7.75434,1.38802,-25.85779,1001.574
1.258567810,-1.410236,0.1670244,0.2555476,-0.4739524,0.1009027,0.8480722,7.75434,1.38802,-25.85779,1001.574
1.261065006,-1.658084,0.3457023,0.07194699,-0.4783637,0.1017916,0.8490238,7.75434,1.38802,-25.85779,1001.574
1.263562202,-1.348274,0.4052616,0.1331472,-0.4791945,0.09349478,0.8471728,7.75434,1.38802,-25.85779,1001.574
1.266059398,-0.8525768,0.4648209,0.377948,-0.4749573,0.1023053,0.8456744,7.75434,1.38802,-25.85779,1001.574
1.268556118,-0.6047285,0.6434988,0.377948,-0.4769399,0.1042818,0.8513935,7.75434,1.38802,-25.85779,1001.574
1.271053314,-0.6666905,0.5243802,0.1331472,-0.4735886,0.1082764,0.854229,7.75434,1.38802,-25.85779,1001.574
1.273550987,-0.7906147,0.7030581,0.3167478,-0.4724343,0.09864943,0.858596,7.75434,1.38802,-25.85779,1001.574
1.276048183,-0.9145389,0.7626175,0.6227488,-0.4804264,0.1074958,0.8432523,7.75434,1.38802,-25.85779,1001.574
1.278544903,-0.5427663,0.5839396,0.07194699,-0.4735867,0.1070803,0.8375193,7.75434,1.38802,-25.85779,1001.574
1.281042099,-0.4808043,0.6434988,0.07194699,-0.467267,0.1098624,0.8537363,7.75434,1.38802,-25.85779,1001.574
1.283539295,-0.8525768,0.7030581,0.1943474,-0.4765946,0.1119991,0.8470392,7.75434,1.38802,-25.85779,1001.574
1.286036491,-0.9145389,0.7626175,0.1331472,-0.480988,0.1119239,0.8484753,7.75434,1.38802,-25.85779,1001.574
1.288534164,-0.7906147,0.8221768,-0.05045342,-0.4717549,0.1145306,0.8470183,7.75434,1.38802,-25.85779,1001.574
1.291030884,-1.410236,0.7626175,0.07194699,-0.4677163,0.107361,0.8489777,7.75434,1.38802,-25.85779,1001.574
1.293528080,-1.84397,0.881736,-0.1728538,-0.4666995,0.1049104,0.845651,7.75434,1.38802,-25.85779,1001.574
1.296025276,-2.463591,0.6434988,-0.234054,-0.4691747,0.1074261,0.8561431,7.75434,1.38802,-25.85779,1001.574
1.298522472,-2.463591,0.5243802,-0.4788548,-0.4671343,0.1020074,0.847105,7.75434,1.38802,-25.85779,1001.574
1.301020145,-3.083212,0.6434988,-0.4176546,-0.4680932,0.1010223,0.8475902,7.75434,1.38802,-25.85779,1001.574
1.303516388,-3.331061,0.881736,-0.6012552,-0.4706436,0.1073366,0.8518456,7.75434,1.38802,-25.85779,1001.574
1.306014061,-3.702833,1.000855,-0.7848558,-0.4716069,0.1075089,0.8661749,7.75434,1.38802,-25.85779,1001.574
1.308511257,-5.004037,1.000855,-0.7848558,-0.4781255,0.1171234,0.8694538,7.75434,1.38802,-25.85779,1001.574
1.311008453,-7.482521,1.179533,-1.335658,-0.4777606,0.1251242,0.8861148,7.75434,1.38802,-25.85779,1001.574
1.313505173,-12.56341,1.775126,-2.314861,-0.4783286,0.1312916,0.9123426,7.75434,1.38802,-25.85779,1001.574
1.316002369,-19.25532,2.668515,-3.416465,-0.4592502,0.1285317,0.8932445,7.75434,1.38802,-25.85779,1001.574
1.318500042,-22.60127,3.681023,-3.722466,-0.4753419,0.09646482,0.8452387,7.386817,1.380096,-25.85703,1001.574
1.320997238,-21.17614,4.097939,-3.661265,-0.4792207,0.09433651,0.8376135,7.386817,1.380096,-25.85703,1001.574
1.323494434,-21.60988,3.204549,-3.967266,-0.4571405,0.1204526,0.9028542,7.386817,1.380096,-25.85703,1001.574
1.325995922,-26.62881,3.681023,-4.518068,-0.4627825,0.1365838,0.9199384,7.386817,1.380096,-25.85703,1001.574
1.328488350,-31.58577,4.991328,-4.762869,-0.4777051,0.1216498,0.8804075,7.386817,1.380096,-25.85703,1001.574
1.330985546,-31.95754,5.110446,-4.762869,-0.4756999,0.08917486,0.845291,7.386817,1.380096,-25.85703,1001.574
1.333483219,-30.28457,4.157498,-4.88527,-0.4699365,0.06747137,0.8468754,7.386817,1.380096,-25.85703,1001.57
1.335979462,-29.10729,3.740582,-4.579268,-0.4721306,0.08104988,0.8491681,7.386817,1.380096,-25.85703,1001.57
1.338477135,-28.23982,4.097939,-4.395668,-0.4801956,0.09434127,0.8395247,7.386817,1.380096,-25.85703,1001.57
1.340974331,-27.1245,4.157498,-4.089667,-0.4850595,0.09329141,0.8414457,7.386817,1.380096,-25.85703,1001.57
1.343471527,-26.44292,3.97882,-4.150867,-0.4796701,0.09305696,0.8514752,7.386817,1.380096,-25.85703,1001.57
1.345968723,-26.25703,3.621464,-4.089667,-0.4805059,0.08591115,0.8629906,7.386817,1.380096,-25.85703,1001.57
1.348465443,-26.13311,3.442786,-3.844866,-0.4789886,0.08242316,0.853939,7.386817,1.380096,-25.85703,1001.57
1.350963116,-25.20368,3.323667,-3.600065,-0.4873521,0.08500817,0.8429391,7.386817,1.380096,-25.85703,1001.57
1.353460312,-23.77855,3.204549,-3.600065,-0.4812992,0.07448991,0.845399,7.386817,1.380096,-25.85703,1001.57
1.355957508,-22.78716,3.264108,-3.355264,-0.475407,0.07264255,0.8430204,7.386817,1.380096,-25.85703,1001.57
1.358454704,-21.7338,3.025871,-3.171664,-0.4794248,0.07950086,0.8539601,7.386817,1.380096,-25.85703,1001.57
1.360951423,-21.42399,3.144989,-3.171664,-0.4773534,0.07331134,0.859735,7.386817,1.380096,-25.85703,1001.57
1.363448620,-21.36203,3.383227,-3.049263,-0.480364,0.07757734,0.8568403,7.386817,1.380096,-25.85703,1001.57
1.365946293,-20.80437,3.502345,-2.926863,-0.4826981,0.07113864,0.8511557,7.386817,1.380096,-25.85703,1001.57
1.368443489,-19.87494,3.442786,-2.620862,-0.4890249,0.06947532,0.8459169,7.75434,1.38802,-25.85779,1001.57
1.370940208,-18.57373,3.383227,-2.743262,-0.4912359,0.08403087,0.8486804,7.75434,1.38802,-25.85779,1001.57
1.373437404,-17.89215,3.383227,-2.620862,-0.4896753,0.07933827,0.8582662,7.75434,1.38802,-25.85779,1001.57
1.375934601,-18.44981,3.204549,-2.437261,-0.4901187,0.07753478,0.8692657,7.75434,1.38802,-25.85779,1001.573
1.378431797,-19.9369,3.144989,-2.743262,-0.4847308,0.07666685,0.8683134,7.75434,1.38802,-25.85779,1001.573
1.380929470,-21.42399,3.442786,-2.926863,-0.4769034,0.07643338,0.8745201,7.75434,1.38802,-25.85779,1001.573
1.383426189,-22.10557,3.800142,-2.804462,-0.4723062,0.06418286,0.8588418,7.75434,1.38802,-25.85779,1001.573
1.385923385,-21.91969,3.561904,-2.804462,-0.4827143,0.0715144,0.8430327,7.75434,1.38802,-25.85779,1001.573
1.388420582,-20.74241,2.966311,-2.926863,-0.4793606,0.07431929,0.8296361,7.75434,1.38802,-25.85779,1001.573
1.390917778,-19.68905,2.549396,-2.376061,-0.4728948,0.06821785,0.8349302,7.75434,1.38802,-25.85779,1001.573
1.393414497,-19.19336,2.489837,-2.376061,-0.4706467,0.0795224,0.8415355,7.75434,1.38802,-25.85779,1001.573
1.395911693,-18.26392,2.311159,-2.376061,-0.4803644,0.07634901,0.8377426,7.75434,1.38802,-25.85779,1001.573
1.398409366,-17.52038,2.430278,-2.253661,-0.4906278,0.07599956,0.8281977,7.75434,1.38802,-25.85779,1001.573
1.400906563,-16.46702,1.953803,-2.192461,-0.4815829,0.06216656,0.8321125,7.75434,1.38802,-25.85779,1001.573
1.403403759,-15.28974,1.656007,-1.886459,-0.4786174,0.06030129,0.8330794,7.75434,1.38802,-25.85779,1001.573
1.405900478,-14.29835,1.834685,-1.702859,-0.478099,0.05891389,0.8373879,7.75434,1.38802,-25.85779,1001.573
1.408397674,-13.36892,1.775126,-1.702859,-0.4741225,0.05573615,0.8474392,7.75434,1.38802,-25.85779,1001.573
1.410894871,-13.12107,1.596448,-1.519258,-0.4775071,0.05431627,0.8555716,7.75434,1.38802,-25.85779,1001.573
1.413392544,-12.81126,1.656007,-1.274457,-0.4848996,0.0574527,0.847911,7.75434,1.38802,-25.85779,1001.573
1.415889263,-12.00575,1.775126,-1.152057,-0.4834357,0.05685716,0.8374057,7.75434,1.38802,-25.85779,1001.571
1.418386459,-10.9524,1.41777,-1.274457,-0.4825593,0.06275972,0.8416621,8.115377,1.756334,-26.31145,1001.571
1.420883655,-10.39474,1.35821,-1.152057,-0.4796706,0.06528144,0.8440307,8.115377,1.756334,-26.31145,1001.571
1.423380852,-9.775118,1.35821,-1.090857,-0.4775462,0.05619302,0.8507817,8.115377,1.756334,-26.31145,1001.571
1.425878525,-9.465307,1.41777,-0.7848558,-0.4860151,0.06519645,0.8478564,8.115377,1.756334,-26.31145,1001.571
1.428374767,-8.783725,1.477329,-0.9072562,-0.4874246,0.06169053,0.8421503,8.115377,1.756334,-26.31145,1001.571
1.430872440,-8.288028,1.35821,-0.9684564,-0.4800361,0.05849611,0.8455124,8.115377,1.756334,-26.31145,1001.571
1.433369636,-7.978217,1.239092,-0.7848558,-0.4794318,0.05224286,0.8489003,8.115377,1.756334,-26.31145,1001.571
1.435866833,-7.730369,1.179533,-0.7236556,-0.4817956,0.04781622,0.8484555,8.115377,1.756334,-26.31145,1001.571
1.438366413,-7.17271,1.298651,-0.6012552,-0.4856674,0.04579101,0.8484723,8.115377,1.756334,-26.31145,1001.571
1.440860748,-6.491127,1.239092,-0.4788548,-0.4818144,0.04876748,0.8470158,8.115377,1.756334,-26.31145,1001.571
1.443357944,-5.933468,1.119973,-0.234054,-0.4789604,0.0532304,0.8493706,8.115377,1.756334,-26.31145,1001.571
1.445855617,-5.499733,1.000855,-0.234054,-0.483474,0.05996868,0.8521912,8.115377,1.756334,-26.31145,1001.571
1.448352814,-5.004037,1.179533,-0.4788548,-0.4766328,0.06018661,0.8574399,8.115377,1.756334,-26.31145,1001.571
1.450849533,-4.942075,1.119973,0.07194699,-0.4756914,0.06214236,0.8569477,8.115377,1.756334,-26.31145,1001.571
1.453346729,-4.942075,1.060414,-0.1116536,-0.4807172,0.06913637,0.8435262,8.115377,1.756334,-26.31145,1001.571
1.455843925,-4.50834,1.060414,-0.4788548,-0.4771461,0.06103717,0.8493138,8.115377,1.756334,-26.31145,1001.573
1.458341598,-4.260492,1.000855,-0.1728538,-0.484592,0.06706604,0.8401995,8.115377,1.756334,-26.31145,1001.573
1.460838795,-3.578909,1.060414,-0.3564544,-0.48649,0.06415735,0.8435651,8.115377,1.756334,-26.31145,1001.573
1.463335514,-3.393023,1.119973,-0.540055,-0.4869379,0.06228942,0.8497883,8.115377,1.756334,-26.31145,1001.573
1.465832710,-3.207136,0.7030581,-0.2952542,-0.4845324,0.06426381,0.8483398,8.115377,1.756334,-26.31145,1001.573
1.468329906,-2.773402,0.7030581,-0.4176546,-0.4801093,0.06293466,0.8507351,7.368737,2.416776,-26.3217,1001.573
1.470827103,-2.587516,0.8221768,-0.234054,-0.4771022,0.05861713,0.8498087,7.368737,2.416776,-26.3217,1001.573
1.473324776,-2.401629,0.8221768,-0.1728538,-0.4846246,0.06903945,0.8425738,7.368737,2.416776,-26.3217,1001.573
1.475821018,-2.215743,0.7626175,-0.234054,-0.4849488,0.05979542,0.8416847,7.368737,2.416776,-26.3217,1001.573
1.478318691,-1.782008,0.5243802,-0.2952542,-0.4874524,0.06312065,0.8402294,7.368737,2.416776,-26.3217,1001.573
1.480815887,-1.224349,0.286143,-0.234054,-0.4942632,0.06151126,0.8397673,7.368737,2.416776,-26.3217,1001.573
1.483313084,-0.8525768,0.286143,-0.05045342,-0.487497,0.06614197,0.8483282,7.368737,2.416776,-26.3217,1001.573
1.485809803,-0.5427663,0.1074651,-0.1116536,-0.4855386,0.06564714,0.8445092,7.368737,2.416776,-26.3217,1001.573
1.488306999,-0.4808043,0.04790583,-0.234054,-0.4834333,0.05750354,0.8493427,7.368737,2.416776,-26.3217,1001.573
1.490804672,-0.1709938,-0.1307721,-0.1116536,-0.4813543,0.05020167,0.8446169,7.368737,2.416776,-26.3217,1001.573
1.493301868,0.07685452,-0.30945,0.01074678,-0.4798237,0.04690698,0.8498939,7.368737,2.416776,-26.3217,1001.573
1.495799065,0.386665,-0.1903314,0.1331472,-0.4818459,0.05075378,0.8503453,7.368737,2.416776,-26.3217,1001.571
1.498295784,0.8823617,-0.3690093,0.1943474,-0.4778718,0.04692966,0.8484596,7.368737,2.416776,-26.3217,1001.571
1.500792980,1.378058,-0.4881279,0.377948,-0.4769907,0.05228894,0.8484209,7.368737,2.416776,-26.3217,1001.571
1.503290176,1.749831,-0.4881279,0.4391482,-0.4829407,0.05696431,0.8445696,7.368737,2.416776,-26.3217,1001.571
1.505787849,1.997679,-0.6668057,0.4391482,-0.4833977,0.05557524,0.8503118,7.368737,2.416776,-26.3217,1001.571
1.508284092,2.431414,-0.6668057,0.6227488,-0.4828279,0.05065545,0.8446146,7.368737,2.416776,-26.3217,1001.571
1.510781765,2.989073,-0.6668057,0.9287497,-0.4842639,0.04859899,0.8384205,7.368737,2.416776,-26.3217,1001.571
1.513278961,3.608694,-0.7263651,0.98995,-0.4788633,0.04730374,0.8417702,7.368737,2.416776,-26.3217,1001.571
1.515776157,4.352239,-0.6668057,1.05115,-0.4808274,0.04771481,0.8393801,7.368737,2.416776,-26.3217,1001.571
1.518273353,5.095784,-0.7263651,1.173551,-0.4814311,0.05458867,0.8460187,8.110271,2.072236,-25.87033,1001.571
1.520770073,5.777367,-0.5476872,1.234751,-0.4828595,0.05264175,0.8479441,8.110271,2.072236,-25.87033,1001.571
1.523267746,6.025215,-0.6072465,1.357151,-0.4790054,0.05624527,0.8569918,8.110271,2.072236,-25.87033,1001.571
1.525768757,5.777367,-0.6072465,1.357151,-0.4796447,0.06504744,0.8626613,8.110271,2.072236,-25.87033,1001.571
1.528262138,5.033822,-0.5476872,1.295951,-0.4753396,0.070564,0.8688291,8.110271,2.072236,-25.87033,1001.571
1.530759334,4.414201,-0.4881279,1.11235,-0.4747455,0.06416255,0.8612317,8.110271,2.072236,-25.87033,1001.571
1.533256054,3.918504,-0.30945,1.418351,-0.4784747,0.05320225,0.8465045,8.110271,2.072236,-25.87033,1001.571
1.535753250,4.352239,-0.1307721,1.479552,-0.4810271,0.05887664,0.8393006,8.110271,2.072236,-25.87033,1001.572
1.538250923,4.97186,-0.2498907,1.295951,-0.4865183,0.06558102,0.8411667,8.110271,2.072236,-25.87033,1001.572
1.540748119,5.219708,-0.2498907,1.295951,-0.4856735,0.07346988,0.8487524,8.110271,2.072236,-25.87033,1001.572
1.543244839,4.600087,-0.1903314,1.234751,-0.4826649,0.06978584,0.8588079,8.110271,2.072236,-25.87033,1001.572
1.545742035,3.670656,-0.1307721,1.234751,-0.4831027,0.06745194,0.8664675,8.110271,2.072236,-25.87033,1001.572
1.548239231,3.051035,-0.1903314,1.05115,-0.4736725,0.05885818,0.8622243,8.110271,2.072236,-25.87033,1001.572
1.550736427,2.803186,-0.01165347,0.9287497,-0.4726899,0.05835523,0.8593614,8.110271,2.072236,-25.87033,1001.572
1.553234100,2.679262,0.2265837,0.98995,-0.4804912,0.05713281,0.853165,8.110271,2.072236,-25.87033,1001.572
1.555730820,3.051035,0.2265837,1.05115,-0.478187,0.0643617,0.8454695,8.110271,2.072236,-25.87033,1001.572
1.558228016,3.422807,0.2265837,0.9287497,-0.4753803,0.07180727,0.8530573,8.110271,2.072236,-25.87033,1001.572
1.560725212,3.360845,0.3457023,0.8063494,-0.4764132,0.07524777,0.85781,8.110271,2.072236,-25.87033,1001.572
1.563222408,3.051035,0.3457023,0.7451492,-0.4779107,0.07718967,0.8601853,8.110271,2.072236,-25.87033,1001.572
1.565720081,2.369452,0.4052616,0.683949,-0.4764693,0.07810156,0.8534907,8.110271,2.072236,-25.87033,1001.572
1.568216324,1.935717,0.5243802,0.4391482,-0.4773957,0.07514299,0.8516017,8.097626,2.810008,-25.88318,1001.572
1.570713997,1.749831,0.3457023,0.4391482,-0.4784623,0.07931568,0.8386756,8.097626,2.810008,-25.88318,1001.572
1.573211193,1.935717,0.286143,0.2555476,-0.4775621,0.08373015,0.8405542,8.097626,2.810008,-25.88318,1001.572
1.575708389,1.811793,0.1670244,0.3167478,-0.4749407,0.07416693,0.8473082,8.097626,2.810008,-25.88318,1001.57
1.578205109,1.997679,0.4052616,0.3167478,-0.4772636,0.06788931,0.853564,8.097626,2.810008,-25.88318,1001.57
1.580702305,2.245528,0.3457023,0.2555476,-0.4783753,0.07507689,0.848259,8.097626,2.810008,-25.88318,1001.57
1.583199501,1.997679,0.1670244,0.01074678,-0.4866878,0.07595912,0.8549449,8.097626,2.810008,-25.88318,1001.57
1.585697174,1.811793,0.3457023,-0.1116536,-0.4832739,0.07658238,0.8597152,8.097626,2.810008,-25.88318,1001.57
1.588194370,1.13021,0.5839396,0.07194699,-0.483668,0.07121427,0.8583207,8.097626,2.810008,-25.88318,1001.57
1.590691090,1.006286,0.4648209,0.1943474,-0.4864462,0.06173731,0.84406,8.097626,2.810008,-25.88318,1001.57
1.593188286,1.068248,0.4648209,0.1331472,-0.4809753,0.05657258,0.8483926,8.097626,2.810008,-25.88318,1001.57
1.595685482,1.440021,0.7030581,0.07194699,-0.4829944,0.06046449,0.8521873,8.097626,2.810008,-25.88318,1001.57
1.598183155,1.687869,0.7030581,0.07194699,-0.4824236,0.05617175,0.8569943,8.097626,2.810008,-25.88318,1001.57
1.600679397,1.440021,0.5243802,0.1943474,-0.4831216,0.06778905,0.8554788,8.097626,2.810008,-25.88318,1001.57
1.603177071,1.192172,0.5839396,0.1943474,-0.4787121,0.06687433,0.8526168,8.097626,2.810008,-25.88318,1001.57
1.605674267,0.8823617,0.6434988,0.1943474,-0.4807577,0.07221568,0.8559235,8.097626,2.810008,-25.88318,1001.57
1.608171463,0.386665,0.7030581,0.07194699,-0.482214,0.07169887,0.8559281,8.097626,2.810008,-25.88318,1001.57
1.610668659,0.386665,0.8221768,0.01074678,-0.4777395,0.06683734,0.8483174,8.097626,2.810008,-25.88318,1001.57
1.613165378,0.386665,0.9412953,0.07194699,-0.4782129,0.06643175,0.8550079,8.097626,2.810008,-25.88318,1001.57
1.615662575,0.3247029,0.881736,0.2555476,-0.4771646,0.06260259,0.8574229,8.097626,2.810008,-25.88318,1001.573
1.618160248,0.01489243,0.6434988,0.07194699,-0.4784499,0.05234119,0.854631,8.103785,2.432625,-26.32323,1001.573
1.620657444,0.01489243,0.7626175,0.07194699,-0.4795104,0.05660408,0.8483915,8.103785,2.432625,-26.32323,1001.573
1.623154163,0.2627408,0.7626175,0.1943474,-0.4828811,0.05416207,0.8527099,8.103785,2.432625,-26.32323,1001.573
1.625651359,0.3247029,1.000855,0.3167478,-0.4775645,0.05715073,0.8498195,8.103785,2.432625,-26.32323,1001.573
1.628148556,0.2627408,1.060414,0.2555476,-0.4812322,0.07118303,0.8521098,8.103785,2.432625,-26.32323,1001.573
1.630646229,0.386665,1.060414,0.2555476,-0.4821701,0.06927882,0.856423,8.103785,2.432625,-26.32323,1001.573
1.633143425,0.1388166,1.060414,0.2555476,-0.478356,0.07474623,0.8597254,8.103785,2.432625,-26.32323,1001.573
1.635640144,-0.3568801,0.9412953,0.2555476,-0.4792714,0.07133459,0.8602279,8.103785,2.432625,-26.32323,1001.573
1.638137340,-0.7286526,1.119973,0.2555476,-0.4810942,0.06340539,0.8512099,8.103785,2.432625,-26.32323,1001.573
1.640634537,-0.5427663,0.881736,0.1331472,-0.4777564,0.06781438,0.8487881,8.103785,2.432625,-26.32323,1001.573
1.643131733,-0.294918,1.000855,0.1943474,-0.4802527,0.07063498,0.8459035,8.103785,2.432625,-26.32323,1001.573
1.645629406,-0.1090318,1.000855,0.01074678,-0.4762819,0.06737348,0.8497458,8.103785,2.432625,-26.32323,1001.573
1.648126125,0.07685452,0.9412953,-0.05045342,-0.4808567,0.0775024,0.8520645,8.103785,2.432625,-26.32323,1001.573
1.650623321,-0.294918,1.119973,-0.1116536,-0.4818216,0.0770412,0.855412,8.103785,2.432625,-26.32323,1001.573
1.653120518,-0.4188422,1.179533,0.01074678,-0.4836446,0.06971973,0.8554653,8.103785,2.432625,-26.32323,1001.573
1.655617714,-0.7286526,0.9412953,-0.234054,-0.4803685,0.07751291,0.8520641,8.103785,2.432625,-26.32323,1001.571
1.658114433,-1.038463,0.8221768,-0.3564544,-0.4777399,0.0668309,0.8478398,8.103785,2.432625,-26.32323,1001.571
1.660611629,-1.162387,1.000855,-0.3564544,-0.4738216,0.06647474,0.8511838,8.103785,2.432625,-26.32323,1001.571
1.663109302,-1.038463,1.239092,-0.1728538,-0.4742633,0.06286097,0.8359246,8.103785,2.432625,-26.32323,1001.571
1.665606499,-0.3568801,1.060414,-0.1728538,-0.4704134,0.06579234,0.8311247,8.103785,2.432625,-26.32323,1001.571
1.668103695,0.2007787,0.881736,-0.05045342,-0.472494,0.07368261,0.8434889,8.103949,2.441122,-25.87676,1001.571
1.670600414,0.4486271,1.119973,-0.2952542,-0.4793687,0.07664707,0.8582793,8.103949,2.441122,-25.87676,1001.571
1.673097610,0.2627408,1.298651,-0.234054,-0.4845972,0.06882478,0.8626372,8.103949,2.441122,-25.87676,1001.571
1.675595760,-0.3568801,1.298651,-0.05045342,-0.4870935,0.07164538,0.8597527,8.103949,2.441122,-25.87676,1001.571
1.678092480,-0.6047285,1.179533,-0.2952542,-0.4884506,0.06461997,0.844996,8.103949,2.441122,-25.87676,1001.571
1.680589676,-0.4188422,1.119973,-0.2952542,-0.4859432,0.06073856,0.8412009,8.103949,2.441122,-25.87676,1001.571
1.683086395,-0.2329559,0.881736,-0.234054,-0.4845352,0.06361097,0.8359252,8.103949,2.441122,-25.87676,1001.571
1.685583591,0.1388166,0.9412953,-0.1116536,-0.4757288,0.06282301,0.835448,8.103949,2.441122,-25.87676,1001.571
1.688080788,0.3247029,1.000855,0.01074678,-0.4757107,0.06247302,0.8454815,8.103949,2.441122,-25.87676,1001.571
1.690578461,0.2007787,1.000855,0.01074678,-0.477242,0.06636899,0.8487982,8.103949,2.441122,-25.87676,1001.571
1.693074703,-0.04706966,0.881736,-0.1116536,-0.4728254,0.06555737,0.853578,8.103949,2.441122,-25.87676,1001.571
1.695572376,0.1388166,0.9412953,-0.05045342,-0.4761263,0.05923941,0.8584017,8.103949,2.441122,-25.87676,1001.571
1.698069572,0.01489243,0.881736,0.01074678,-0.4801167,0.06343929,0.8521644,8.103949,2.441122,-25.87676,1001.571
1.700566769,0.386665,0.6434988,-0.1116536,-0.4757593,0.06543636,0.8492816,8.103949,2.441122,-25.87676,1001.571
1.703063965,0.8823617,0.5839396,0.01074678,-0.475699,0.06203283,0.8488282,8.103949,2.441122,-25.87676,1001.571
1.705560684,0.7584376,0.7030581,0.1331472,-0.4855339,0.06510385,0.8402141,8.103949,2.441122,-25.87676,1001.571
1.708057880,0.7584376,0.6434988,0.07194699,-0.4799719,0.05453642,0.8398086,8.103949,2.441122,-25.87676,1001.571
1.710555553,1.378058,0.286143,0.1943474,-0.4824313,0.05544805,0.8393258,8.103949,2.441122,-25.87676,1001.571
1.713052750,2.121603,0.2265837,0.377948,-0.4806247,0.063753,0.8402209,8.103949,2.441122,-25.87676,1001.571
1.715549469,2.245528,0.04790583,0.377948,-0.4852135,0.07490405,0.8463536,8.103949,2.441122,-25.87676,1001.571
1.718046665,1.811793,-0.1307721,0.3167478,-0.4832184,0.07310797,0.854008,7.742748,2.064311,-25.86957,1001.571
1.720543861,1.687869,0.04790583,0.4391482,-0.4875284,0.06752054,0.8425864,7.742748,2.064311,-25.86957,1001.571
1.723041534,1.811793,0.04790583,0.3167478,-0.4890258,0.06946243,0.8449618,7.742748,2.064311,-25.86957,1001.571
1.725538731,1.811793,-0.1903314,0.07194699,-0.4832789,0.07589734,0.8449125,7.742748,2.064311,-25.86957,1001.571
1.728035450,1.687869,-0.1903314,0.1331472,-0.4808528,0.07756039,0.8563631,7.742748,2.064311,-25.86957,1001.571
1.730532646,1.316096,-0.4881279,0.01074678,-0.4812816,0.07413348,0.8549548,7.742748,2.064311,-25.86957,1001.571
1.733029842,0.6345134,-0.2498907,0.07194699,-0.475318,0.06904368,0.8640632,7.742748,2.064311,-25.86957,1001.571
1.735527039,0.1388166,-0.2498907,-0.1116536,-0.4787727,0.07088557,0.8621414,7.742748,2.064311,-25.86957,1001.571
1.738025665,0.2007787,-0.1307721,-0.234054,-0.483201,0.07213739,0.8540149,7.742748,2.064311,-25.86957,1001.575
1.740520954,0.2627408,0.04790583,-0.3564544,-0.4816958,0.06969731,0.8506877,7.742748,2.064311,-25.86957,1001.575
1.743018627,0.2627408,0.04790583,-0.4788548,-0.4851774,0.07298219,0.8478003,7.742748,2.064311,-25.86957,1001.575
1.745515823,0.2007787,-0.07121277,-0.4788548,-0.4856963,0.07558504,0.8616343,7.742748,2.064311,-25.86957,1001.575
1.748013020,-0.1709938,0.1670244,-0.3564544,-0.4890737,0.07304636,0.8587884,7.742748,2.064311,-25.86957,1001.575
1.750509739,-0.1709938,-0.07121277,-0.4788548,-0.4876432,0.07441134,0.8497022,7.742748,2.064311,-25.86957,1001.575
1.753006935,-0.294918,0.286143,-0.846056,-0.4810872,0.06289432,0.8493029,7.742748,2.064311,-25.86957,1001.575
1.755504608,-0.4188422,0.2265837,-0.540055,-0.4738927,0.0709455,0.8587945,7.742748,2.064311,-25.86957,1001.575
1.758001804,-0.4188422,0.1670244,-0.540055,-0.4788508,0.07525324,0.8621103,7.742748,2.064311,-25.86957,1001.575
1.760499000,-0.5427663,0.286143,-0.9072562,-0.4860189,0.06575262,0.8531067,7.742748,2.064311,-25.86957,1001.575
1.762995720,-0.7286526,0.286143,-0.7848558,-0.4925563,0.07570421,0.8453969,7.742748,2.064311,-25.86957,1001.575
1.765492916,-0.6047285,0.2265837,-1.090857,-0.4887238,0.07960618,0.8405902,7.742748,2.064311,-25.86957,1001.575
1.767990112,-0.4808043,0.286143,-0.9684564,-0.4823636,0.07930897,0.8444099,8.103785,2.432625,-26.32323,1001.575
1.770487785,-0.6666905,0.2265837,-1.029657,-0.4866998,0.07700704,0.8606694,8.103785,2.432625,-26.32323,1001.575
1.772984981,-0.9145389,0.4052616,-0.9684564,-0.4831692,0.07076526,0.8602343,8.103785,2.432625,-26.32323,1001.575
1.775481701,-0.9765009,0.6434988,-1.029657,-0.4869196,0.06133172,0.8507505,8.103785,2.432625,-26.32323,1001.575
1.777978897,-0.8525768,0.5839396,-1.029657,-0.4916596,0.0529122,0.8460367,8.103785,2.432625,-26.32323,1001.578
1.780476093,-0.6047285,0.5243802,-0.846056,-0.4906963,0.05396179,0.8503277,8.103785,2.432625,-26.32323,1001.578
1.782973289,-0.2329559,0.7030581,-0.9072562,-0.483545,0.06321757,0.8411818,8.103785,2.432625,-26.32323,1001.578
1.785470009,-0.2329559,0.7626175,-0.846056,-0.4846076,0.06806241,0.8421031,8.103785,2.432625,-26.32323,1001.578
1.787972927,-0.3568801,0.5243802,-0.7848558,-0.4877241,0.07874035,0.8468054,8.103785,2.432625,-26.32323,1001.578
1.790464878,-0.7286526,0.3457023,-0.9072562,-0.4774584,0.07790014,0.8401181,8.103785,2.432625,-26.32323,1001.578
1.792962074,-0.9765009,0.1670244,-1.029657,-0.4734943,0.07576387,0.8554162,8.103785,2.432625,-26.32323,1001.578
1.795459270,-0.9145389,0.04790583,-1.090857,-0.4826894,0.07065334,0.8511592,8.103785,2.432625,-26.32323,1001.578
1.797955990,-1.410236,0.286143,-1.029657,-0.4796762,0.06581184,0.8473706,8.103785,2.432625,-26.32323,1001.578
1.800453186,-1.472198,0.1670244,-1.213257,-0.4816528,0.06726438,0.8502274,8.103785,2.432625,-26.32323,1001.578
1.802950859,-1.224349,-0.07121277,-1.213257,-0.4805239,0.05849205,0.8459903,8.103785,2.432625,-26.32323,1001.578
1.805448055,-1.038463,-0.1307721,-0.9684564,-0.4805088,0.05748924,0.8436092,8.103785,2.432625,-26.32323,1001.578
1.807944775,-0.9145389,-0.07121277,-0.9684564,-0.4814411,0.05505463,0.8445824,8.103785,2.432625,-26.32323,1001.578
1.810441971,-0.4188422,-0.2498907,-0.7848558,-0.4809249,0.05363502,0.8465028,8.103785,2.432625,-26.32323,1001.578
1.812939167,0.01489243,-0.30945,-0.6012552,-0.4834164,0.0565265,0.848872,8.103785,2.432625,-26.32323,1001.578
1.815436363,0.386665,-0.4285686,-0.4176546,-0.4824262,0.05613309,0.8541286,8.103785,2.432625,-26.32323,1001.578
1.817934036,0.3247029,-0.6072465,-0.540055,-0.4844859,0.06188242,0.8517004,7.742913,2.072808,-25.42311,1001.574
1.820430756,-0.2329559,-0.30945,-0.6012552,-0.4854663,0.06241758,0.8569515,7.742913,2.072808,-25.42311,1001.574
1.822927952,-0.4808043,-0.4881279,-0.540055,-0.4834175,0.05712133,0.8569881,7.742913,2.072808,-25.42311,1001.574
1.825425148,-0.3568801,-0.4285686,-0.4788548,-0.4814298,0.054608,0.8474516,7.742913,2.072808,-25.42311,1001.574
1.827922344,0.01489243,-0.4285686,-0.3564544,-0.4830207,0.06130622,0.8426281,7.742913,2.072808,-25.42311,1001.574
1.830420017,0.2007787,-0.4881279,-0.1116536,-0.4823768,0.05318265,0.8512836,7.742913,2.072808,-25.42311,1001.574
1.832916260,0.2007787,-0.3690093,-0.1728538,-0.4859185,0.06048523,0.8583986,7.742913,2.072808,-25.42311,1001.574
1.835413933,0.01489243,-0.1307721,-0.2952542,-0.4864168,0.06094069,0.8569626,7.742913,2.072808,-25.42311,1001.574
1.837913513,-0.1090318,-0.2498907,-0.1116536,-0.48873,0.05358294,0.8551058,7.742913,2.072808,-25.42311,1001.574
1.840408325,0.1388166,-0.2498907,-0.1116536,-0.4829494,0.05744961,0.8445662,7.742913,2.072808,-25.42311,1001.574
1.842905045,0.3247029,-0.2498907,-0.2952542,-0.4830171,0.06135776,0.846449,7.742913,2.072808,-25.42311,1001.574
1.845402241,0.5105891,-0.2498907,0.07194699,-0.4834836,0.0604411,0.8512325,7.742913,2.072808,-25.42311,1001.574
1.847899437,0.2627408,-0.1307721,0.01074678,-0.4821211,0.06632195,0.8531004,7.742913,2.072808,-25.42311,1001.574
1.850397110,0.1388166,-0.01165347,0.07194699,-0.4855063,0.06428146,0.8512063,7.742913,2.072808,-25.42311,1001.574
1.852894306,-0.1709938,0.1074651,0.1331472,-0.4864021,0.05993143,0.8541039,7.742913,2.072808,-25.42311,1001.574
1.855391026,-0.4188422,-0.01165347,-0.05045342,-0.4859365,0.06083521,0.8483651,7.742913,2.072808,-25.42311,1001.574
1.857888222,-0.4188422,0.04790583,-0.05045342,-0.4849239,0.05893436,0.8498111,7.742913,2.072808,-25.42311,1001.573
1.860385418,-0.2329559,0.2265837,0.01074678,-0.4810516,0.06096603,0.850272,7.742913,2.072808,-25.42311,1001.573
1.862883091,-0.04706966,0.1074651,-0.1116536,-0.4797335,0.06926046,0.8511674,7.742913,2.072808,-25.42311,1001.573
1.865379333,-0.1090318,0.1670244,-0.05045342,-0.4826767,0.07022603,0.8554611,7.742913,2.072808,-25.42311,1001.573
1.867877006,-0.1709938,0.3457023,-0.1728538,-0.4861478,0.07305139,0.8544877,7.368902,2.425273,-25.87523,1001.573
1.870374203,-0.4808043,0.5839396,-0.05045342,-0.4880663,0.0710682,0.854503,7.368902,2.425273,-25.87523,1001.573
1.872871399,-0.5427663,0.4648209,-0.1728538,-0.4874774,0.06520359,0.8507232,7.368902,2.425273,-25.87523,1001.573
1.875368595,-0.5427663,0.4052616,-0.234054,-0.4863736,0.05790004,0.847431,7.368902,2.425273,-25.87523,1001.573
1.877865314,-0.2329559,0.6434988,-0.05045342,-0.4839646,0.05992596,0.8498034,7.368902,2.425273,-25.87523,1001.573
1.880362511,0.01489243,0.7030581,-0.1116536,-0.4844616,0.06040075,0.8498003,7.368902,2.425273,-25.87523,1001.573
1.882860184,-0.1709938,0.6434988,-0.1116536,-0.4850557,0.0668022,0.8573976,7.368902,2.425273,-25.87523,1001.573
1.885357380,-0.1090318,0.4648209,-0.2952542,-0.4841919,0.07313207,0.857352,7.368902,2.425273,-25.87523,1001.573
1.887854576,0.07685452,0.4648209,-0.234054,-0.4880543,0.07002028,0.8487785,7.368902,2.425273,-25.87523,1001.573
1.890351295,0.01489243,0.5243802,-0.234054,-0.4851218,0.07012197,0.851642,7.368902,2.425273,-25.87523,1001.573
1.892848492,-0.1709938,0.5243802,-0.1728538,-0.4816989,0.06965221,0.8473444,7.368902,2.425273,-25.87523,1001.573
1.895346165,-0.1090318,0.5243802,-0.05045342,-0.4860029,0.06476269,0.8516808,7.368902,2.425273,-25.87523,1001.573
1.897843361,0.01489243,0.286143,0.01074678,-0.4814614,0.05659429,0.8507811,7.368902,2.425273,-25.87523,1001.575
1.900340080,-0.2329559,0.286143,-0.05045342,-0.4790403,0.0575723,0.847429,7.368902,2.425273,-25.87523,1001.575
1.902837276,0.01489243,0.4052616,0.01074678,-0.4790486,0.05806404,0.8479032,7.368902,2.425273,-25.87523,1001.575
1.905334473,0.2007787,0.04790583,0.1943474,-0.4775702,0.05706697,0.8436105,7.368902,2.425273,-25.87523,1001.575
1.907831669,0.5105891,-0.07121277,0.07194699,-0.4819644,0.05759304,0.8536402,7.368902,2.425273,-25.87523,1001.575
1.910329342,0.386665,-0.07121277,0.1943474,-0.4791523,0.06389405,0.8483393,7.368902,2.425273,-25.87523,1001.575
1.912825584,0.3247029,-0.30945,0.3167478,-0.4811055,0.06385203,0.8483407,7.368902,2.425273,-25.87523,1001.575
1.915323257,0.4486271,-0.2498907,0.2555476,-0.4820396,0.06139165,0.8474035,7.368902,2.425273,-25.87523,1001.575
1.917820454,0.4486271,-0.1903314,0.377948,-0.4830362,0.06230257,0.8445316,8.416681,2.086123,-25.48829,1001.575
1.920317650,0.5105891,-0.01165347,0.4391482,-0.4854538,0.06137611,0.8517047,8.416681,2.086123,-25.48829,1001.575
1.922814846,0.8823617,-0.1307721,0.5003484,-0.4818604,0.05115531,0.8441328,8.416681,2.086123,-25.48829,1001.575
1.925311565,0.8203996,-0.3690093,0.683949,-0.4852884,0.05216192,0.852248,8.416681,2.086123,-25.48829,1001.575
1.927809238,0.8203996,-0.30945,0.7451492,-0.4868054,0.05504218,0.8522283,8.416681,2.086123,-25.48829,1001.575
1.930306435,1.13021,-0.4285686,0.5615486,-0.4806136,0.06391408,0.8521613,8.416681,2.086123,-25.48829,1001.575
1.932803631,1.13021,-0.3690093,0.6227488,-0.4815507,0.06202276,0.8574297,8.416681,2.086123,-25.48829,1001.575
1.935300350,1.192172,-0.30945,0.7451492,-0.4778076,0.07073905,0.8497226,8.416681,2.086123,-25.48829,1001.575
1.937797546,1.254134,-0.1903314,0.7451492,-0.4777628,0.06833189,0.8511728,8.416681,2.086123,-25.48829,1001.575
1.940294743,1.316096,-0.2498907,0.7451492,-0.4783462,0.0736661,0.8516127,8.416681,2.086123,-25.48829,1001.575
1.942792416,1.316096,-0.1903314,0.7451492,-0.482646,0.06822685,0.8511764,8.416681,2.086123,-25.48829,1001.575
1.945289612,1.068248,-0.07121277,0.683949,-0.4830752,0.0647935,0.8492905,8.416681,2.086123,-25.48829,1001.575
1.947786331,1.068248,-0.07121277,0.6227488,-0.4820162,0.0598971,0.8445482,8.416681,2.086123,-25.48829,1001.575
1.950283527,1.192172,0.1074651,0.683949,-0.4804509,0.05466122,0.8498389,8.416681,2.086123,-25.48829,1001.575
1.952780724,1.378058,0.1074651,0.683949,-0.4865355,0.06716578,0.8507087,8.416681,2.086123,-25.48829,1001.575
1.955277920,1.316096,-0.1307721,0.6227488,-0.4823053,0.0764874,0.8511173,8.416681,2.086123,-25.48829,1001.575
1.957775593,1.254134,-0.07121277,0.6227488,-0.4773894,0.07523321,0.8582883,8.416681,2.086123,-25.48829,1001.575
1.960272312,0.8823617,0.04790583,0.683949,-0.4808154,0.07565786,0.8592427,8.416681,2.086123,-25.48829,1001.575
1.962769508,0.4486271,-0.01165347,0.6227488,-0.4818004,0.07551443,0.8501686,8.416681,2.086123,-25.48829,1001.575
1.965266705,0.5105891,-0.07121277,0.4391482,-0.4778273,0.07106326,0.8377787,8.416681,2.086123,-25.48829,1001.575
1.967763901,0.8823617,0.04790583,0.4391482,-0.4817802,0.07397477,0.8439699,8.097767,2.817291,-25.5005,1001.575
1.970260620,0.8823617,-0.01165347,0.3167478,-0.4793043,0.07207966,0.8435043,8.097767,2.817291,-25.5005,1001.575
1.972757816,0.8203996,0.1074651,0.377948,-0.4762767,0.06683664,0.8459283,8.097767,2.817291,-25.5005,1001.575
1.975255489,0.5725513,0.1670244,0.3167478,-0.4797773,0.07168052,0.8506725,8.097767,2.817291,-25.5005,1001.575
1.977752686,0.7584376,0.1074651,0.377948,-0.4783649,0.07461736,0.850173,8.097767,2.817291,-25.5005,1001.579
1.980249882,0.6964754,0.1670244,0.1331472,-0.4803108,0.07407072,0.848745,8.097767,2.817291,-25.5005,1001.579
1.982746601,0.5105891,-0.01165347,0.1331472,-0.4822331,0.07264369,0.8540107,8.097767,2.817291,-25.5005,1001.579
1.985243797,0.4486271,0.1074651,0.01074678,-0.4789939,0.08234584,0.8482075,8.097767,2.817291,-25.5005,1001.579
1.987740993,0.1388166,0.04790583,-0.1728538,-0.4808142,0.07506303,0.8511266,8.097767,2.817291,-25.5005,1001.579
1.990238667,0.01489243,0.1670244,-0.1116536,-0.482287,0.07552969,0.8520795,8.097767,2.817291,-25.5005,1001.579
1.992735386,0.1388166,0.2265837,0.07194699,-0.4817232,0.07113387,0.8492445,8.097767,2.817291,-25.5005,1001.579
1.995232582,0.3247029,0.2265837,0.07194699,-0.4856969,0.07496443,0.8516078,8.097767,2.817291,-25.5005,1001.579
1.997729778,0.2627408,0.1670244,-0.05045342,-0.4866314,0.07249761,0.850193,8.097767,2.817291,-25.5005,1001.579
2.000226974,0.2007787,0.04790583,-0.1728538,-0.4879909,0.06666186,0.8516684,8.097767,2.817291,-25.5005,1001.579
2.002724648,-0.1090318,0.1074651,-0.2952542,-0.4856392,0.07152225,0.8482887,8.097767,2.817291,-25.5005,1001.579
2.005220890,-0.294918,0.1074651,-0.234054,-0.4810073,0.05855243,0.8512445,8.097767,2.817291,-25.5005,1001.579
2.007718563,-0.1709938,0.04790583,-0.1728538,-0.4810717,0.06189796,0.8473994,8.097767,2.817291,-25.5005,1001.579
2.010215759,0.01489243,0.1074651,-0.05045342,-0.4839296,0.05737706,0.8407459,8.097767,2.817291,-25.5005,1001.579
2.012712955,-0.1090318,-0.01165347,-0.1728538,-0.4834763,0.05993647,0.849803,8.097767,2.817291,-25.5005,1001.579
2.015210152,-0.2329559,0.1074651,-0.2952542,-0.4796931,0.06678888,0.8478413,8.097767,2.817291,-25.5005,1001.579
2.017706871,-0.294918,-0.1903314,-0.1728538,-0.4841244,0.06860976,0.8459202,8.103949,2.441122,-25.87676,1001.579
2.020204544,-0.4808043,-0.1307721,-0.05045342,-0.4820877,0.06436142,0.8516814,8.103949,2.441122,-25.87676,1001.579
2.022701740,-0.4808043,-0.1307721,-0.05045342,-0.4820939,0.06427122,0.8449947,8.103949,2.441122,-25.87676,1001.579
2.025198936,-0.4188422,-0.2498907,-0.05045342,-0.48001,0.05704022,0.8455228,8.103949,2.441122,-25.87676,1001.579
2.027695656,-0.4808043,-0.3690093,-0.05045342,-0.4784648,0.05273628,0.8479409,8.103949,2.441122,-25.87676,1001.579
2.030192852,-0.3568801,-0.1903314,0.07194699,-0.4779414,0.05019787,0.838883,8.103949,2.441122,-25.87676,1001.579
2.032690048,0.01489243,-0.1307721,0.1331472,-0.4815424,0.06030914,0.8383353,8.103949,2.441122,-25.87676,1001.579
2.035187721,0.2007787,-0.2498907,0.3167478,-0.4859913,0.06370834,0.8454787,8.103949,2.441122,-25.87676,1001.579
2.037687302,0.1388166,-0.4285686,0.3167478,-0.4861044,0.07062492,0.854505,8.103949,2.441122,-25.87676,1001.579
2.040181637,0.2007787,-0.1307721,0.2555476,-0.480836,0.07596919,0.8463435,8.103949,2.441122,-25.87676,1001.579
2.042678833,-0.294918,-0.1307721,0.3167478,-0.4768521,0.07228682,0.8549653,8.103949,2.441122,-25.87676,1001.579
2.045176029,-0.4808043,-0.2498907,0.3167478,-0.4821975,0.07071539,0.8549797,8.103949,2.441122,-25.87676,1001.579
2.047673225,-0.4808043,-0.01165347,0.2555476,-0.4791993,0.06626899,0.8445011,8.103949,2.441122,-25.87676,1001.579
2.050170898,-0.1090318,-0.1307721,0.1943474,-0.480252,0.0700337,0.8373098,8.103949,2.441122,-25.87676,1001.579
2.052667618,0.3247029,-0.1307721,0.2555476,-0.4797192,0.06824477,0.847831,8.103949,2.441122,-25.87676,1001.579
2.055164814,0.2007787,-0.07121277,0.1943474,-0.4816172,0.06533608,0.8511965,8.103949,2.441122,-25.87676,1001.579
2.057662010,0.2007787,-0.1307721,0.1331472,-0.4792739,0.0706882,0.8482909,8.103949,2.441122,-25.87676,1001.577
2.060159206,0.07685452,-0.01165347,0.2555476,-0.4827089,0.07159172,0.8487641,8.103949,2.441122,-25.87676,1001.577
2.062659740,-0.294918,-0.1307721,0.1943474,-0.4856539,0.07253151,0.8511475,8.103949,2.441122,-25.87676,1001.577
2.065153122,-0.294918,-0.07121277,0.1943474,-0.4850926,0.06871118,0.8549957,8.103949,2.441122,-25.87676,1001.577
2.067650795,-0.04706966,-0.01165347,0.377948,-0.4864634,0.06332207,0.853602,8.103785,2.432625,-26.32323,1001.577
2.070147991,-0.3568801,-0.01165347,0.1943474,-0.4802097,0.06820205,0.8454432,8.103785,2.432625,-26.32323,1001.577
2.072645187,-0.294918,-0.1307721,0.07194699,-0.4817254,0.07110165,0.8468564,8.103785,2.432625,-26.32323,1001.577
2.075141907,-0.2329559,-0.01165347,0.1943474,-0.4831968,0.07158766,0.8492421,8.103785,2.432625,-26.32323,1001.577
2.077639103,-0.1090318,-0.01165347,0.1331472,-0.4830487,0.06334405,0.8497785,8.103785,2.432625,-26.32323,1001.577
2.080136299,0.07685452,0.04790583,0.2555476,-0.4807209,0.06969254,0.8487765,8.103785,2.432625,-26.32323,1001.577
2.082633972,0.07685452,-0.1903314,0.1943474,-0.4793064,0.07266162,0.8506652,8.103785,2.432625,-26.32323,1001.577
2.085131168,0.1388166,-0.07121277,0.1331472,-0.4802765,0.07212309,0.8482813,8.103785,2.432625,-26.32323,1001.577
2.087627888,-0.1090318,0.1074651,0.1331472,-0.4826139,0.06624701,0.8483245,8.103785,2.432625,-26.32323,1001.577
2.090125084,-0.294918,-0.01165347,0.1331472,-0.4826833,0.07012938,0.8482969,8.103785,2.432625,-26.32323,1001.577
2.092622280,-0.1090318,-0.01165347,0.07194699,-0.4796927,0.06679532,0.8483189,8.103785,2.432625,-26.32323,1001.577
2.095119953,0.01489243,-0.01165347,0.1331472,-0.4806214,0.06441227,0.8531131,8.103785,2.432625,-26.32323,1001.577
2.097616196,-0.1709938,0.04790583,0.1943474,-0.4815868,0.06394462,0.855983,8.103785,2.432625,-26.32323,1001.576
2.100113869,-0.1090318,-0.01165347,0.1943474,-0.4825892,0.06477179,0.8469021,8.103785,2.432625,-26.32323,1001.576
2.102611065,0.2627408,0.1670244,0.07194699,-0.4831785,0.07062995,0.8502043,8.103785,2.432625,-26.32323,1001.576
2.105108261,0.386665,0.1074651,0.1331472,-0.483201,0.07213739,0.8540149,8.103785,2.432625,-26.32323,1001.576
2.107605457,0.3247029,0.04790583,0.07194699,-0.4831289,0.06829367,0.8569082,8.103785,2.432625,-26.32323,1001.576
2.110102177,0.2007787,0.1670244,0.1943474,-0.485004,0.06388398,0.8569407,8.103785,2.432625,-26.32323,1001.576
2.112599373,0.1388166,0.04790583,0.3167478,-0.4844681,0.06091827,0.852185,8.103785,2.432625,-26.32323,1001.576
2.115097046,0.2627408,0.04790583,0.1331472,-0.4834954,0.06088129,0.8478857,8.103785,2.432625,-26.32323,1001.576
2.117594242,0.2627408,0.1074651,0.1331472,-0.4839906,0.06138185,0.849793,8.103785,2.432625,-26.32323,1001.576
2.120091438,0.386665,0.04790583,0.2555476,-0.4903431,0.06118087,0.8450216,8.103785,2.432625,-26.32323,1001.576
2.122588158,0.6345134,0.1074651,0.377948,-0.4850056,0.06325048,0.8459589,8.103785,2.432625,-26.32323,1001.576
2.125085354,0.6345134,-0.01165347,0.377948,-0.4781405,0.06198031,0.84883,8.103785,2.432625,-26.32323,1001.576
2.127583027,0.4486271,-0.07121277,0.4391482,-0.4816918,0.0697553,0.8549863,8.103785,2.432625,-26.32323,1001.576
2.130080223,0.3247029,-0.07121277,0.5003484,-0.4816477,0.06672753,0.8464099,8.103785,2.432625,-26.32323,1001.576
2.132576942,0.6345134,-0.1307721,0.5003484,-0.4801658,0.06578201,0.8459381,8.103785,2.432625,-26.32323,1001.576
2.135074139,0.6964754,-0.2498907,0.5615486,-0.4821841,0.06968681,0.8506881,8.103785,2.432625,-26.32323,1001.576
2.137576103,0.8203996,-0.01165347,0.7451492,-0.4827584,0.07454215,0.8516091,8.103785,2.432625,-26.32323,1001.576
2.140068531,0.9443238,-0.07121277,0.5615486,-0.4847368,0.07596892,0.8525554,8.103785,2.432625,-26.32323,1001.574
2.142566204,0.8823617,-0.3690093,0.5003484,-0.4827014,0.07170126,0.8568836,8.103785,2.432625,-26.32323,1001.574
2.145062447,0.8203996,-0.1307721,0.5003484,-0.4831576,0.0697109,0.8540322,8.103785,2.432625,-26.32323,1001.574
2.147560120,0.7584376,0.2265837,0.5003484,-0.4865326,0.06659672,0.844503,8.103785,2.432625,-26.32323,1001.574
2.150057793,0.7584376,-0.01165347,0.5615486,-0.485006,0.06324404,0.8454814,8.103785,2.432625,-26.32323,1001.574
2.152554512,0.9443238,-0.1307721,0.377948,-0.4800984,0.06248158,0.8531266,8.103785,2.432625,-26.32323,1001.574
2.155051708,1.068248,0.04790583,0.5003484,-0.4855954,0.06910221,0.8487836,8.103785,2.432625,-26.32323,1001.574
2.157548428,1.13021,0.1074651,0.5003484,-0.487546,0.06909885,0.8516508,8.103785,2.432625,-26.32323,1001.574
2.160046101,1.006286,0.1074651,0.5003484,-0.4811908,0.06933849,0.859288,8.103785,2.432625,-26.32323,1001.574
2.162543297,1.316096,0.1670244,0.377948,-0.4797933,0.07267044,0.8520984,8.103785,2.432625,-26.32323,1001.574
2.165040493,1.006286,0.1074651,0.4391482,-0.4797161,0.06828987,0.8511743,8.103785,2.432625,-26.32323,1001.574
2.167537212,0.8203996,0.1074651,0.4391482,-0.4806315,0.06487823,0.8516768,8.091444,3.186177,-25.50692,1001.574
2.170034409,1.13021,0.2265837,0.5615486,-0.4825658,0.06327723,0.8440467,8.091444,3.186177,-25.50692,1001.574
2.172531605,1.316096,0.04790583,0.6227488,-0.4846023,0.06813973,0.8478345,8.091444,3.186177,-25.50692,1001.574
2.175029278,1.563945,0.1670244,0.6227488,-0.4777252,0.06582164,0.8449811,8.091444,3.186177,-25.50692,1001.574
2.177526474,1.687869,0.286143,0.6227488,-0.4806441,0.06530555,0.8473748,8.091444,3.186177,-25.50692,1001.574
2.180023193,1.811793,0.286143,0.6227488,-0.4826716,0.06968919,0.8516437,8.091444,3.186177,-25.50692,1001.575
2.182520390,1.997679,0.4052616,0.3167478,-0.4783675,0.0745787,0.8473073,8.091444,3.186177,-25.50692,1001.575
2.185017586,2.183565,0.2265837,0.683949,-0.479277,0.0706431,0.8449476,8.091444,3.186177,-25.50692,1001.575
2.187517643,2.493376,0.1670244,0.8063494,-0.4822433,0.0724955,0.8430254,8.091444,3.186177,-25.50692,1001.575
2.190011501,2.6173,0.1670244,0.683949,-0.4832827,0.07645351,0.8501628,8.091444,3.186177,-25.50692,1001.575
2.192509174,2.6173,0.2265837,0.683949,-0.4822318,0.07266302,0.8554435,8.091444,3.186177,-25.50692,1001.575
2.195006371,2.6173,0.1074651,0.7451492,-0.4840623,0.06523202,0.8473773,8.091444,3.186177,-25.50692,1001.575
2.197503567,2.741224,0.1670244,0.8063494,-0.4847904,0.0782472,0.8415529,8.091444,3.186177,-25.50692,1001.575
2.200000763,3.422807,-0.07121277,0.7451492,-0.4848256,0.08018194,0.8410615,8.091444,3.186177,-25.50692,1001.575
2.202497482,3.360845,-0.07121277,0.683949,-0.4842142,0.07403179,0.8520913,8.091444,3.186177,-25.50692,1001.575
2.204994678,3.546731,-0.1903314,0.8063494,-0.4826546,0.06871215,0.851173,8.091444,3.186177,-25.50692,1001.575
2.207492351,3.732618,0.1074651,0.683949,-0.4827181,0.07207057,0.8482831,8.091444,3.186177,-25.50692,1001.575
2.209989548,4.042428,-0.01165347,0.8063494,-0.4841805,0.07146356,0.841601,8.091444,3.186177,-25.50692,1001.575
2.212486744,4.538125,-0.1307721,0.9287497,-0.4806971,0.06820443,0.8463988,8.091444,3.186177,-25.50692,1001.575
2.214983463,4.785974,-0.2498907,0.8675496,-0.4857329,0.0768863,0.8501611,8.091444,3.186177,-25.50692,1001.575
2.217480659,4.909898,-0.30945,0.9287497,-0.4836987,0.07199157,0.8439852,7.736425,2.433197,-25.87599,1001.575
2.219977856,5.033822,-0.2498907,0.98995,-0.4855693,0.06764632,0.8487939,7.736425,2.433197,-25.87599,1001.571
2.222475529,5.219708,-0.1307721,0.9287497,-0.4823495,0.078901,0.8501448,7.736425,2.433197,-25.87599,1001.571
2.224972248,5.405594,-0.07121277,0.8675496,-0.487615,0.07298766,0.8521007,7.736425,2.433197,-25.87599,1001.571
2.227469444,4.97186,-0.4881279,0.8063494,-0.4875573,0.06954549,0.8487816,7.736425,2.433197,-25.87599,1001.571
2.229966640,4.228315,-0.4285686,0.6227488,-0.4812694,0.07369972,0.8587792,7.736425,2.433197,-25.87599,1001.571
2.232463836,3.422807,-0.1307721,0.683949,-0.480621,0.06441871,0.8535907,7.736425,2.433197,-25.87599,1001.571
2.234961510,3.051035,-0.01165347,0.5615486,-0.4806637,0.06624392,0.8449798,7.736425,2.433197,-25.87599,1001.571
2.237457752,3.236921,0.04790583,0.5615486,-0.4827176,0.07207701,0.8487607,7.736425,2.433197,-25.87599,1001.571
2.239955425,2.865149,0.04790583,0.6227488,-0.4846905,0.07419526,0.8649873,7.736425,2.433197,-25.87599,1001.571
2.242452621,1.687869,0.04790583,0.377948,-0.4877319,0.08046041,0.8663774,7.736425,2.433197,-25.87599,1001.571
2.244949817,0.8203996,0.2265837,0.07194699,-0.4809501,0.08287288,0.8544146,7.736425,2.433197,-25.87599,1001.571
2.247447014,0.4486271,0.1670244,0.1331472,-0.4827793,0.0754612,0.8477812,7.736425,2.433197,-25.87599,1001.571
2.249948978,0.4486271,0.04790583,0.07194699,-0.4835671,0.06473145,0.84547,7.736425,2.433197,-25.87599,1001.571
2.252440929,0.6345134,0.1670244,0.07194699,-0.4850681,0.0666218,0.8440243,7.736425,2.433197,-25.87599,1001.571
2.254938602,0.7584376,-0.1903314,0.1943474,-0.4817628,0.07300417,0.8439769,7.736425,2.433197,-25.87599,1001.571
2.257435798,0.6964754,-0.1903314,0.1331472,-0.4871975,0.07686123,0.8506398,7.736425,2.433197,-25.87599,1001.571
2.259932518,0.3247029,-0.3690093,0.1943474,-0.4852233,0.07598419,0.8544663,7.736425,2.433197,-25.87599,1001.572
2.262431621,-0.294918,-0.1307721,-0.05045342,-0.4787711,0.07029717,0.854503,7.736425,2.433197,-25.87599,1001.572
2.264926910,-0.5427663,0.04790583,-0.05045342,-0.4798029,0.07314283,0.8511397,7.736425,2.433197,-25.87599,1001.572
2.267424583,-0.294918,0.1074651,-0.05045342,-0.4807866,0.07301874,0.8434985,7.743054,2.080091,-25.04042,1001.572
2.269921779,-0.1090318,0.04790583,-0.1116536,-0.4861458,0.07246946,0.8473269,7.743054,2.080091,-25.04042,1001.572
2.272418499,-0.04706966,0.1670244,-0.1728538,-0.4871685,0.07483627,0.8444446,7.743054,2.080091,-25.04042,1001.572
2.274915695,-0.1090318,0.1074651,-0.1116536,-0.4802995,0.07362408,0.8516142,7.743054,2.080091,-25.04042,1001.572
2.277412891,-0.1709938,0.1074651,-0.05045342,-0.4847546,0.07693307,0.8520709,7.743054,2.080091,-25.04042,1001.572
2.279910087,-0.1090318,-0.01165347,-0.234054,-0.4851873,0.07406233,0.8559129,7.743054,2.080091,-25.04042,1001.572
2.282407760,-0.294918,0.04790583,-0.1728538,-0.4836343,0.06864604,0.8478304,7.743054,2.080091,-25.04042,1001.572
2.284904003,-0.3568801,-0.07121277,-0.234054,-0.4811128,0.06435666,0.8497701,7.743054,2.080091,-25.04042,1001.572
2.287401676,-0.4808043,-0.01165347,-0.1728538,-0.4810995,0.06332807,0.8454785,7.743054,2.080091,-25.04042,1001.572
2.289898872,-0.1709938,-0.07121277,-0.05045342,-0.4812266,0.07065263,0.84877,7.743054,2.080091,-25.04042,1001.572
2.292396068,0.01489243,-0.07121277,0.01074678,-0.4798793,0.07753629,0.853019,7.743054,2.080091,-25.04042,1001.572
2.294892788,0.07685452,-0.1307721,-0.1116536,-0.4784902,0.0819677,0.8553749,7.743054,2.080091,-25.04042,1001.572
2.297389984,-0.1090318,-0.01165347,-0.1116536,-0.4818074,0.0760255,0.8520756,7.743054,2.080091,-25.04042,1001.572
2.299887657,-0.4188422,-0.1307721,-0.234054,-0.4792122,0.06730401,0.8492703,7.743054,2.080091,-25.04042,1001.572
2.302384853,-0.2329559,-0.07121277,-0.05045342,-0.4757319,0.06399979,0.8507249,7.743054,2.080091,-25.04042,1001.572
2.304882049,-0.1090318,-0.07121277,0.01074678,-0.4752966,0.06690919,0.8497485,7.743054,2.080091,-25.04042,1001.572
2.307378769,0.01489243,-0.07121277,0.01074678,-0.4782228,0.06689771,0.8535716,7.743054,2.080091,-25.04042,1001.572
2.309875965,0.07685452,-0.30945,-0.05045342,-0.4762845,0.06733482,0.8468801,7.743054,2.080091,-25.04042,1001.572
2.312373161,0.3247029,-0.07121277,-0.1116536,-0.4788989,0.07700113,0.8477679,7.743054,2.080091,-25.04042,1001.572
2.314870834,0.2007787,-0.1307721,-0.1116536,-0.4770128,0.08095773,0.850127,7.743054,2.080091,-25.04042,1001.572
2.317368030,0.2627408,-0.4881279,-0.05045342,-0.4798815,0.07750408,0.8506309,7.368737,2.416776,-26.3217,1001.572
2.319864750,-0.1709938,-0.4285686,0.01074678,-0.4832861,0.07701613,0.8558908,7.368737,2.416776,-26.3217,1001.572
2.322361946,-0.2329559,-0.1903314,-0.2952542,-0.4799592,0.08187819,0.8510774,7.368737,2.416776,-26.3217,1001.572
2.324859142,-0.3568801,-0.1307721,-0.1728538,-0.475435,0.07468038,0.8501709,7.368737,2.416776,-26.3217,1001.572
2.327356338,-0.294918,-0.2498907,-0.1728538,-0.4773202,0.07073666,0.848767,7.368737,2.416776,-26.3217,1001.572
2.329853058,-0.2329559,-0.4285686,-0.234054,-0.4777474,0.06672136,0.8397204,7.368737,2.416776,-26.3217,1001.572
2.332350731,-0.04706966,-0.30945,-0.2952542,-0.4826782,0.06959254,0.8444794,7.368737,2.416776,-26.3217,1001.572
2.334847927,0.07685452,-0.1903314,-0.1728538,-0.479441,0.07987663,0.8458371,7.368737,2.416776,-26.3217,1001.572
2.337345123,0.07685452,-0.1903314,-0.4176546,-0.4769156,0.07564524,0.8520755,7.368737,2.416776,-26.3217,1001.572
2.339842319,0.1388166,-0.2498907,-0.540055,-0.4811728,0.06776663,0.8507012,7.368737,2.416776,-26.3217,1001.57
2.342339039,0.3247029,-0.3690093,-0.234054,-0.4807461,0.07116132,0.8497214,7.368737,2.416776,-26.3217,1001.57
2.344836235,0.3247029,-0.4285686,-0.05045342,-0.4782654,0.06933708,0.8545096,7.368737,2.416776,-26.3217,1001.57
2.347333908,0.07685452,-0.2498907,-0.1728538,-0.484024,0.06334237,0.8512121,7.368737,2.416776,-26.3217,1001.57
2.349831104,0.1388166,-0.3690093,0.01074678,-0.4873024,0.05551698,0.8522252,7.368737,2.416776,-26.3217,1001.57
2.352327823,0.2627408,-0.4285686,0.07194699,-0.4809799,0.05711586,0.8526877,7.368737,2.416776,-26.3217,1001.57
2.354825020,0.2627408,-0.2498907,0.2555476,-0.4834507,0.05847413,0.8493358,7.368737,2.416776,-26.3217,1001.57
2.357322216,0.4486271,-0.30945,0.377948,-0.4845941,0.06764799,0.8473604,7.368737,2.416776,-26.3217,1001.57
2.359819412,0.7584376,-0.2498907,0.1331472,-0.4875329,0.06867799,0.8564304,7.368737,2.416776,-26.3217,1001.57
2.362317085,0.6345134,-0.30945,0.1943474,-0.4831663,0.0701962,0.8540287,7.368737,2.416776,-26.3217,1001.57
2.364813804,0.1388166,-0.4285686,0.2555476,-0.4803711,0.07747424,0.8491984,7.368737,2.416776,-26.3217,1001.57
2.367311001,-0.1709938,-0.1903314,0.1331472,-0.4809006,0.07992244,0.8515696,8.103949,2.441122,-25.87676,1001.57
2.369808197,-0.294918,-0.30945,0.07194699,-0.4804237,0.08037958,0.8487,8.103949,2.441122,-25.87676,1001.57
2.372305393,-0.6666905,-0.2498907,0.07194699,-0.4852482,0.07684524,0.8463398,8.103949,2.441122,-25.87676,1001.57
2.374803066,-0.9145389,-0.2498907,0.1331472,-0.4841861,0.07199395,0.8449408,8.103949,2.441122,-25.87676,1001.57
2.377299309,-0.6047285,-0.2498907,0.1331472,-0.4807441,0.07057938,0.8425606,8.103949,2.441122,-25.87676,1001.57
2.379796982,-0.7906147,-0.3690093,-0.05045342,-0.4796584,0.06484769,0.8478552,8.103949,2.441122,-25.87676,1001.568
2.382294178,-0.8525768,-0.1903314,0.01074678,-0.4782166,0.06698792,0.8602583,8.103949,2.441122,-25.87676,1001.568
2.384791374,-0.8525768,-0.30945,-0.05045342,-0.4764442,0.07663278,0.8525458,8.103949,2.441122,-25.87676,1001.568
2.387288093,-1.038463,-0.07121277,-0.1116536,-0.4818203,0.07706053,0.8568449,8.103949,2.441122,-25.87676,1001.568
2.389785290,-1.224349,-0.01165347,-0.2952542,-0.4807842,0.07366513,0.8554355,8.103949,2.441122,-25.87676,1001.568
2.392282963,-1.286311,-0.1903314,-0.1728538,-0.4778966,0.07555979,0.8473,8.103949,2.441122,-25.87676,1001.568
2.394780159,-1.162387,-0.1903314,-0.1116536,-0.4788806,0.07604342,0.8487301,8.103949,2.441122,-25.87676,1001.568
2.397277355,-1.224349,-0.1307721,-0.234054,-0.4779352,0.07805716,0.8525365,8.103949,2.441122,-25.87676,1001.568
2.399774074,-1.224349,-0.1307721,-0.2952542,-0.4863056,0.08115326,0.8434437,8.103949,2.441122,-25.87676,1001.568
2.402271271,-1.410236,-0.1903314,-0.2952542,-0.4823315,0.07732913,0.841558,8.103949,2.441122,-25.87676,1001.568
2.404768467,-1.720046,-0.07121277,-0.2952542,-0.4763382,0.07083499,0.8544978,8.103949,2.441122,-25.87676,1001.568
2.407266140,-1.596122,-0.30945,-0.2952542,-0.4797321,0.0692798,0.8526002,8.103949,2.441122,-25.87676,1001.568
2.409763336,-1.596122,-0.4881279,-0.234054,-0.4821894,0.06960949,0.8449567,8.103949,2.441122,-25.87676,1001.568
2.412260055,-1.53416,-0.30945,-0.3564544,-0.4817216,0.07054548,0.8416061,8.103949,2.441122,-25.87676,1001.568
2.414757252,-1.348274,-0.1903314,-0.2952542,-0.4729358,0.07129072,0.8468499,8.103949,2.441122,-25.87676,1001.568
2.417254448,-1.410236,-0.07121277,-0.3564544,-0.4792365,0.06878567,0.8511705,8.10409,2.448405,-25.49407,1001.568
2.419751644,-1.472198,-0.1307721,-0.3564544,-0.4773436,0.07223121,0.8516224,8.10409,2.448405,-25.49407,1001.565
2.422249317,-1.596122,-0.2498907,-0.234054,-0.4759763,0.07756878,0.8491952,8.10409,2.448405,-25.49407,1001.565
2.424746036,-1.286311,-0.2498907,-0.3564544,-0.4735348,0.0776213,0.8491934,8.10409,2.448405,-25.49407,1001.565
2.427243233,-1.472198,-0.1903314,-0.4176546,-0.4666332,0.0744357,0.8539888,8.10409,2.448405,-25.49407,1001.565
2.429740429,-1.782008,-0.2498907,-0.234054,-0.4724377,0.07144298,0.8573571,8.10409,2.448405,-25.49407,1001.565
2.432237625,-1.720046,-0.01165347,-0.1116536,-0.4803255,0.07507997,0.8516039,8.10409,2.448405,-25.49407,1001.565
2.434734344,-1.472198,-0.01165347,-0.2952542,-0.4704925,0.07136901,0.8487585,8.10409,2.448405,-25.49407,1001.565
2.437231541,-1.410236,-0.1903314,-0.234054,-0.4670899,0.07243891,0.8506596,8.10409,2.448405,-25.49407,1001.565
2.439729214,-1.286311,0.1670244,-0.4788548,-0.4704947,0.0713368,0.8463704,8.10409,2.448405,-25.49407,1001.565
2.442226410,-1.038463,0.286143,-0.540055,-0.4704282,0.06802348,0.8526037,8.10409,2.448405,-25.49407,1001.565
2.444723606,-1.224349,0.286143,-0.3564544,-0.4776961,0.06563275,0.8669549,8.10409,2.448405,-25.49407,1001.565
2.447220325,-1.410236,0.1670244,-0.4176546,-0.476715,0.0644963,0.8531102,8.10409,2.448405,-25.49407,1001.565
2.449717522,-1.038463,0.3457023,-0.4788548,-0.4742835,0.06501478,0.8516721,8.10409,2.448405,-25.49407,1001.565
2.452214718,-0.6047285,0.2265837,-0.2952542,-0.4721701,0.05576528,0.8464825,8.10409,2.448405,-25.49407,1001.565
2.454712391,-0.4188422,0.1670244,-0.1116536,-0.4761852,0.06144038,0.8416678,8.10409,2.448405,-25.49407,1001.565
2.457209110,0.2627408,0.4648209,0.07194699,-0.4727397,0.06007734,0.8431085,8.10409,2.448405,-25.49407,1001.565
2.459706306,1.006286,0.5243802,0.3167478,-0.479185,0.06525329,0.8411647,8.10409,2.448405,-25.49407,1001.567
2.462203503,1.192172,0.4052616,0.2555476,-0.4886132,0.07448699,0.8568673,8.10409,2.448405,-25.49407,1001.567
2.464700699,0.6345134,0.286143,-0.05045342,-0.4867775,0.08138115,0.8611159,8.10409,2.448405,-25.49407,1001.567
2.467198372,0.07685452,0.286143,-0.05045342,-0.4900955,0.07542606,0.8568614,8.103949,2.441122,-25.87676,1001.567
2.469694614,-0.1090318,0.1074651,0.01074678,-0.4905849,0.07478852,0.8463576,8.103949,2.441122,-25.87676,1001.567
2.472192287,0.2627408,0.04790583,-0.1116536,-0.4827212,0.07202546,0.8449398,8.103949,2.441122,-25.87676,1001.567
2.474689484,0.5105891,0.1074651,-0.05045342,-0.4890182,0.06957197,0.8530812,8.103949,2.441122,-25.87676,1001.567
2.477186680,-0.04706966,-0.07121277,0.01074678,-0.4905197,0.07145587,0.851158,8.103949,2.441122,-25.87676,1001.567
2.479683876,-0.4188422,-0.07121277,0.01074678,-0.4821098,0.06587531,0.8559695,8.103949,2.441122,-25.87676,1001.567
2.482180595,-0.6666905,-0.01165347,0.1331472,-0.4806522,0.06641145,0.8573979,8.103949,2.441122,-25.87676,1001.567
2.484677791,-0.6047285,0.4052616,0.07194699,-0.4895945,0.07378738,0.8425429,8.103949,2.441122,-25.87676,1001.567
2.487175465,-0.2329559,0.4052616,-0.1728538,-0.4930217,0.07419271,0.8420643,8.103949,2.441122,-25.87676,1001.567
2.489672661,0.01489243,0.2265837,0.01074678,-0.4881407,0.0748797,0.8492215,8.103949,2.441122,-25.87676,1001.567
2.492169857,0.3247029,0.4052616,-0.1728538,-0.4847564,0.0769073,0.8501604,8.103949,2.441122,-25.87676,1001.567
2.494667053,0.01489243,0.286143,-0.1728538,-0.4755297,0.08003153,0.851088,8.103949,2.441122,-25.87676,1001.567
2.497163772,-0.2329559,0.5243802,-0.234054,-0.4853697,0.0836394,0.8462914,8.103949,2.441122,-25.87676,1001.567
2.499661446,0.01489243,1.000855,-0.234054,-0.5023054,0.07390937,0.8358622,8.103949,2.441122,-25.87676,1001.567
2.502158642,0.8203996,0.5243802,-0.4176546,-0.4899911,0.06899478,0.8478316,8.103949,2.441122,-25.87676,1001.566
2.504655361,0.6964754,0.1670244,-0.4788548,-0.4753912,0.07348222,0.8692859,8.103949,2.441122,-25.87676,1001.566
2.507152557,-0.3568801,0.1670244,-0.3564544,-0.4824017,0.08303466,0.8687443,8.103949,2.441122,-25.87676,1001.566
2.509649753,-1.410236,0.4648209,-0.4176546,-0.4955172,0.07824808,0.8587551,8.103949,2.441122,-25.87676,1001.566
2.512146950,-1.782008,0.7626175,-0.7848558,-0.4947376,0.06047862,0.8359536,8.103949,2.441122,-25.87676,1001.566
2.514644623,-1.410236,0.4648209,-0.7848558,-0.4844604,0.05980592,0.8416843,8.103949,2.441122,-25.87676,1001.566
2.517140865,-0.7906147,0.1670244,-0.4176546,-0.4835905,0.06622601,0.8483253,8.110271,2.072236,-25.87033,1001.566
2.519638538,-0.3568801,0.3457023,-0.3564544,-0.4823574,0.07939918,0.8510966,8.110271,2.072236,-25.87033,1001.566
2.522135734,-0.4808043,0.286143,-0.6012552,-0.4799572,0.08251813,0.8625368,8.110271,2.072236,-25.87033,1001.566
2.524632931,-1.472198,0.4648209,-0.6624554,-0.4793251,0.07483476,0.8678455,8.110271,2.072236,-25.87033,1001.566
2.527130127,-2.153781,0.5839396,-0.6012552,-0.4841015,0.06833065,0.8612075,8.110271,2.072236,-25.87033,1001.566
2.529626846,-1.967895,0.7626175,-0.540055,-0.4898519,0.06062232,0.8388156,8.110271,2.072236,-25.87033,1001.566
2.532124519,-1.100425,0.4648209,-0.540055,-0.4840714,0.06448898,0.828276,8.110271,2.072236,-25.87033,1001.566
2.534621715,-0.6666905,0.4052616,-0.6624554,-0.4827534,0.07339115,0.8382427,8.110271,2.072236,-25.87033,1001.566
2.537122726,-0.4808043,0.4648209,-0.540055,-0.4817597,0.07304928,0.8473202,8.110271,2.072236,-25.87033,1001.566
2.539615631,-1.100425,0.3457023,-0.4176546,-0.4788548,0.07519525,0.8578117,8.110271,2.072236,-25.87033,1001.566
2.542112827,-1.658084,0.286143,-0.4788548,-0.4841447,0.07014941,0.8521189,8.110271,2.072236,-25.87033,1001.564
2.544610023,-1.720046,0.5243802,-0.4176546,-0.4880627,0.06989786,0.8397038,8.110271,2.072236,-25.87033,1001.564
2.547107696,-1.596122,0.04790583,-0.540055,-0.480132,0.06382793,0.8449968,8.110271,2.072236,-25.87033,1001.564
2.549604893,-1.224349,-0.01165347,-0.6624554,-0.4802583,0.07116538,0.8492434,8.110271,2.072236,-25.87033,1001.564
2.552101612,-0.9145389,0.2265837,-0.4788548,-0.4812814,0.07352576,0.8458835,8.110271,2.072236,-25.87033,1001.564
2.554598808,-0.9765009,0.4052616,-0.4788548,-0.4811774,0.06830991,0.8549963,8.110271,2.072236,-25.87033,1001.564
2.557096004,-0.9145389,0.1670244,-0.2952542,-0.4836893,0.07212688,0.8540152,8.110271,2.072236,-25.87033,1001.564
2.559593201,-0.6047285,-0.01165347,-0.1728538,-0.4904785,0.06899717,0.8487872,8.110271,2.072236,-25.87033,1001.564
2.562089920,-0.5427663,0.1670244,-0.3564544,-0.4914947,0.07084647,0.8435203,8.110271,2.072236,-25.87033,1001.564
2.564587593,-0.8525768,0.1670244,-0.3564544,-0.4850993,0.06861453,0.8478314,8.110271,2.072236,-25.87033,1001.564
2.567084789,-1.162387,0.04790583,-0.2952542,-0.4860619,0.06818554,0.8535671,7.742583,2.055815,-26.31604,1001.564
2.569581985,-1.348274,-0.07121277,-0.4176546,-0.4839946,0.06132386,0.8454945,7.742583,2.055815,-26.31604,1001.564
2.572079182,-1.286311,-0.07121277,-0.3564544,-0.4821759,0.06919506,0.8502139,7.742583,2.055815,-26.31604,1001.564
2.574575901,-1.100425,0.04790583,-0.1116536,-0.4845409,0.06536327,0.8578852,7.742583,2.055815,-26.31604,1001.564
2.577073097,-0.7906147,0.04790583,-0.1116536,-0.4816636,0.06833162,0.8573847,7.742583,2.055815,-26.31604,1001.564
2.579570770,-0.9145389,0.1670244,-0.05045342,-0.4837345,0.07452759,0.8520874,7.742583,2.055815,-26.31604,1001.564
2.582067966,-1.224349,0.286143,-0.3564544,-0.4861158,0.07107155,0.8516358,7.742583,2.055815,-26.31604,1001.56
2.584565163,-1.53416,0.286143,-0.234054,-0.4816115,0.06541985,0.8574055,7.742583,2.055815,-26.31604,1001.56
2.587061882,-1.472198,0.3457023,-0.05045342,-0.4846484,0.07052756,0.8449516,7.742583,2.055815,-26.31604,1001.56
2.589559078,-1.348274,0.1670244,-0.234054,-0.4866016,0.07048555,0.8449531,7.742583,2.055815,-26.31604,1001.56
2.592056274,-1.348274,0.286143,-0.1728538,-0.4830717,0.06484505,0.8531114,7.742583,2.055815,-26.31604,1001.56
2.594553947,-1.286311,0.286143,-0.2952542,-0.4836285,0.0687298,0.8540394,7.742583,2.055815,-26.31604,1001.56
2.597050667,-1.348274,0.286143,-0.2952542,-0.4837523,0.07549174,0.8516029,7.742583,2.055815,-26.31604,1001.56
2.599548340,-1.596122,0.1074651,-0.2952542,-0.4821507,0.06772628,0.849269,7.742583,2.055815,-26.31604,1001.56
2.602045059,-1.720046,0.1074651,-0.05045342,-0.4810821,0.06235748,0.8454854,7.742583,2.055815,-26.31604,1001.56
2.604542255,-1.596122,0.1670244,-0.1116536,-0.4899991,0.06887881,0.8392345,7.742583,2.055815,-26.31604,1001.56
2.607039928,-1.410236,-0.01165347,-0.234054,-0.4846871,0.07241076,0.8406391,7.742583,2.055815,-26.31604,1001.56
2.609536171,-1.100425,-0.07121277,-0.1728538,-0.4868242,0.08314838,0.8482064,7.742583,2.055815,-26.31604,1001.56
2.612033844,-0.9145389,0.2265837,-0.234054,-0.4901195,0.07630001,0.8496902,7.742583,2.055815,-26.31604,1001.56
2.614531040,-1.286311,-0.1307721,-0.1116536,-0.4846952,0.07351666,0.8506622,7.742583,2.055815,-26.31604,1001.56
2.617028236,-1.410236,-0.2498907,-0.234054,-0.4857321,0.07689918,0.8511164,7.736567,2.44048,-25.49331,1001.56
2.619525432,-1.720046,-0.4285686,-0.234054,-0.4869258,0.06124151,0.8440638,7.736567,2.44048,-25.49331,1001.56
2.622022152,-1.720046,-0.6668057,-0.05045342,-0.4835615,0.06420105,0.8421301,7.736567,2.44048,-25.49331,1001.563
2.624519348,-1.348274,-0.3690093,-0.234054,-0.4835733,0.06464124,0.8387833,7.736567,2.44048,-25.49331,1001.563
2.627017021,-0.8525768,-0.4881279,-0.1728538,-0.4841262,0.06858399,0.8440098,7.736567,2.44048,-25.49331,1001.563
2.629514217,-0.7286526,-0.4881279,-0.1728538,-0.4788918,0.07710423,0.8554098,7.736567,2.44048,-25.49331,1001.563
2.632011413,-0.8525768,-0.4285686,-0.05045342,-0.4793684,0.07603936,0.8492081,7.736567,2.44048,-25.49331,1001.563
2.634508133,-0.7906147,-0.5476872,0.07194699,-0.4837463,0.07496779,0.8487406,7.736567,2.44048,-25.49331,1001.563
2.637008190,-0.8525768,-0.6072465,-0.1728538,-0.4818065,0.07603839,0.8530309,7.736567,2.44048,-25.49331,1001.563
2.639503002,-0.8525768,-0.6072465,-0.234054,-0.4806831,0.06779646,0.8521337,7.736567,2.44048,-25.49331,1001.563
2.642000198,-1.100425,-0.6072465,-0.234054,-0.484558,0.06572613,0.848807,7.736567,2.44048,-25.49331,1001.563
2.644496918,-1.038463,-0.7263651,-0.3564544,-0.4821752,0.06859379,0.8416203,7.736567,2.44048,-25.49331,1001.563
2.646994114,-0.9765009,-0.9050429,-0.05045342,-0.478696,0.0658844,0.8511909,7.736567,2.44048,-25.49331,1001.563
2.649491310,-0.9145389,-0.7263651,-0.1116536,-0.4797152,0.06830276,0.8521295,7.736567,2.44048,-25.49331,1001.563
2.651988506,-0.7906147,-0.7859244,-0.2952542,-0.4807361,0.07069536,0.8511577,7.736567,2.44048,-25.49331,1001.563
2.654486179,-1.162387,-0.6668057,-0.234054,-0.4812186,0.07076862,0.8573671,7.736567,2.44048,-25.49331,1001.563
2.656982422,-1.286311,-0.6072465,-0.1728538,-0.4801663,0.06577557,0.8454605,7.736567,2.44048,-25.49331,1001.563
2.659480095,-1.224349,-0.6072465,-0.234054,-0.4753582,0.07029338,0.8487691,7.736567,2.44048,-25.49331,1001.563
2.661977291,-1.038463,-0.4881279,-0.234054,-0.4773462,0.07219255,0.8487567,7.736567,2.44048,-25.49331,1001.559
2.664474487,-1.100425,-0.3690093,-0.3564544,-0.4733768,0.06891172,0.8511661,7.736567,2.44048,-25.49331,1001.559
2.666971207,-0.9145389,-0.3690093,-0.2952542,-0.4757246,0.06349516,0.8492954,7.736567,2.44048,-25.49331,1001.559
2.669468403,-0.6666905,-0.4881279,-0.234054,-0.4729236,0.07085697,0.8506743,7.736567,2.44048,-25.49331,1001.559
2.671966076,-0.6666905,-0.4285686,-0.2952542,-0.4754393,0.07523011,0.8549435,7.736567,2.44048,-25.49331,1001.559
2.674463272,-0.7906147,-0.1307721,-0.3564544,-0.4749922,0.07769932,0.857314,7.736567,2.44048,-25.49331,1001.559
