Time (s),Gyroscope X (deg/s),Gyroscope Y (deg/s),Gyroscope Z (deg/s),Accelerometer X (g),Accelerometer Y (g),Accelerometer Z (g),Magnetometer X (uT),Magnetometer Y (uT),Magnetometer Z (uT),Barometer (hPa)
0.000000000,-0.06727377,0.7836029,0.06723025,-0.4610688,0.09228373,0.872487,42.27731,-28.9617,-33.68151,1001.443
0.002497196,0.1805957,0.5451195,0.006008934,-0.4806285,0.09207825,0.852438,42.27731,-28.9617,-33.68151,1001.443
0.004994392,0.3664253,-0.2293227,-0.1775936,-0.4710929,0.1048352,0.8470871,42.27731,-28.9617,-33.68151,1001.443
0.007491112,-0.1293866,-0.4079285,-0.1163376,-0.4603252,0.1042052,0.8552055,42.27731,-28.9617,-33.68151,1001.443
0.009988308,-0.3152322,0.06867402,-0.2999016,-0.4695579,0.1016049,0.8571402,42.27731,-28.9617,-33.68151,1001.443
0.012485504,-0.2531711,0.1282117,-0.0550066,-0.4792651,0.09797199,0.8552611,42.27731,-28.9617,-33.68151,1001.443
0.014982224,0.3045673,0.1281715,-0.05498932,-0.4690667,0.1010464,0.8509343,42.27731,-28.9617,-33.68151,1001.443
0.017479897,0.4283958,-0.2887839,-0.1161722,-0.4646494,0.1008553,0.8657407,42.27731,-28.9617,-33.68151,1001.443
0.019977093,-0.2533218,-0.2291339,-0.1773359,-0.4563847,0.1029493,0.8638101,42.27731,-28.9617,-33.68151,1001.443
0.022473812,-0.3771664,0.1878532,-0.1772802,-0.4597579,0.09986091,0.8561916,42.27731,-28.9617,-33.68151,1001.443
0.024971008,0.05668672,0.2473535,-0.05482414,-0.4670526,0.09769129,0.850957,42.27731,-28.9617,-33.68151,1001.445
0.027468205,0.3045173,0.1281572,0.006393286,-0.4646674,0.1012053,0.8557072,42.27731,-28.9617,-33.68151,1001.445
0.029965401,0.1804974,0.008998327,-0.1160091,-0.4666766,0.1046313,0.8609383,42.27731,-28.9617,-33.68151,1001.445
0.032462120,-0.2532939,0.008995503,-0.1771729,-0.4647082,0.1036705,0.8585556,41.89731,-28.22336,-33.24712,1001.445
0.034959316,-0.3151764,0.06855198,-0.05471682,-0.4626189,0.0965168,0.8648151,41.89731,-28.22336,-33.24712,1001.445
0.037456989,-0.3150774,0.00897114,-0.1771,-0.4640515,0.09389772,0.852893,41.89731,-28.22336,-33.24712,1001.445
0.039953709,0.05679411,0.06852762,-0.05464399,-0.4645654,0.09534955,0.8533606,41.89731,-28.22336,-33.24712,1001.445
0.042450905,0.2426625,0.06850609,-0.115827,-0.4656109,0.09983151,0.8633602,41.89731,-28.22336,-33.24712,1001.445
0.044948101,0.3665105,0.008925267,0.006609767,-0.463679,0.1007861,0.8590533,41.89731,-28.22336,-33.24712,1001.445
0.047444820,0.3044333,0.1876004,-0.05459251,-0.4656719,0.1026144,0.8537871,41.89731,-28.22336,-33.24712,1001.445
0.049942017,0.05648925,0.2471007,0.006624841,-0.4657013,0.1046329,0.8595047,41.89731,-28.22336,-33.24712,1001.445
0.052439213,-0.1294148,0.0683452,-0.05457744,-0.463685,0.1013101,0.8619155,41.89731,-28.22336,-33.24712,1001.445
0.054935932,-0.2532983,0.127883,0.006639906,-0.4646297,0.09869508,0.8495154,41.89731,-28.22336,-33.24712,1001.445
0.057433605,-0.2532187,0.2469615,0.00663782,-0.4646131,0.09832576,0.858116,41.89731,-28.22336,-33.24712,1001.445
0.059930801,-0.06725289,0.1873246,0.06783593,-0.464561,0.09541398,0.8581368,41.89731,-28.22336,-33.24712,1001.445
0.062427521,0.05669242,0.1872657,0.06781463,-0.4586979,0.09497742,0.8524045,41.89731,-28.22336,-33.24712,1001.445
0.064924717,-0.06724957,0.3063255,-0.05460708,-0.4645915,0.09680544,0.8533502,41.89731,-28.22336,-33.24712,1001.446
0.067421913,-0.1291905,0.06799206,0.006610274,-0.4661172,0.100171,0.8533271,41.89731,-28.22336,-33.24712,1001.446
0.069918633,-0.2530741,0.2466486,0.251409,-0.4611872,0.09790111,0.8571617,41.89731,-28.22336,-33.24712,1001.446
0.072415829,-0.1290704,0.06789321,0.1901298,-0.4656532,0.1016632,0.8552268,41.89731,-28.22336,-33.24712,1001.446
0.074913025,-0.1290299,-0.110806,0.006469484,-0.4602453,0.0998633,0.8571472,41.89731,-28.22336,-33.24712,1001.446
0.077409744,-0.06702726,0.3061439,-0.115933,-0.4636964,0.1017567,0.8590464,41.89731,-28.22336,-33.24712,1001.446
0.079907417,-0.06700621,0.3060477,-0.1158965,-0.4640892,0.09640797,0.8590848,41.89731,-28.22336,-33.24712,1001.446
0.082404614,-0.1289472,0.06771436,-0.1158601,-0.4660603,0.0973301,0.8586016,41.52948,-28.24706,-34.07551,1001.446
0.084901333,-0.1289067,0.1272524,0.006576682,-0.4680696,0.1001419,0.8542838,41.52948,-28.24706,-34.07551,1001.446
0.087398529,0.1189821,0.1867717,0.006574615,-0.4670851,0.0996647,0.8533313,41.52948,-28.24706,-34.07551,1001.446
0.089895725,0.2428689,0.06759444,0.006572549,-0.4666158,0.1012342,0.8609625,41.52948,-28.24706,-34.07551,1001.446
0.092392445,-0.06701784,0.0675732,-0.05462972,-0.4660901,0.09934217,0.8638416,41.52948,-28.24706,-34.07551,1001.446
0.094889641,-0.005034693,0.1271113,-0.177013,-0.4627037,0.1007878,0.8576196,41.52948,-28.24706,-34.07551,1001.446
0.097386837,-0.1289573,0.24619,-0.1769574,-0.4626634,0.09831623,0.8542936,41.52948,-28.24706,-34.07551,1001.446
0.099883556,-0.004992597,0.2461126,-0.05450135,-0.4656118,0.09981863,0.8624049,41.52948,-28.24706,-34.07551,1001.446
0.102381229,0.05697107,0.06735738,-0.1156844,-0.4680269,0.09831667,0.8628948,41.52948,-28.24706,-34.07551,1001.446
0.104878426,-0.1289331,0.007776916,-0.05444789,-0.465555,0.09636357,0.8581306,41.52948,-28.24706,-34.07551,1001.444
0.107375145,-0.1908547,0.1268931,-0.05443078,-0.4655955,0.09822099,0.8519077,41.52948,-28.24706,-34.07551,1001.444
0.109872341,-0.06687054,0.1268532,-0.1156139,-0.469021,0.09865209,0.8533396,41.52948,-28.24706,-34.07551,1001.444
0.112369537,0.05707465,0.245932,-0.05437736,-0.4705474,0.1026189,0.8619102,41.52948,-28.24706,-34.07551,1001.444
0.114866257,-0.1288295,0.06717679,-0.1767607,-0.4656505,0.1017018,0.8580925,41.52948,-28.24706,-34.07551,1001.444
0.117363453,-0.1287891,-0.1115222,-0.05430475,-0.4632406,0.1037406,0.8614202,41.52948,-28.24706,-34.07551,1001.444
0.119860649,-0.1287486,0.12675,-0.05428769,-0.4645888,0.0968441,0.856216,41.52948,-28.24706,-34.07551,1001.444
0.122358322,-0.1906703,0.1862695,-0.1154708,-0.4641332,0.09821384,0.8490409,41.52948,-28.24706,-34.07551,1001.444
0.124855042,0.057238,0.1266517,-0.1154346,-0.4661689,0.1030892,0.853784,41.52948,-28.24706,-34.07551,1001.444
0.127352238,0.05722002,0.1266119,-0.3601991,-0.4657422,0.1064839,0.8528042,41.52948,-28.24706,-34.07551,1001.444
0.129849434,0.05720204,0.06701281,-0.1764853,-0.4695552,0.1016436,0.8600059,41.52948,-28.24706,-34.07551,1001.444
0.132346153,-0.06674011,0.3052289,0.007170717,-0.4676576,0.1045458,0.8561628,41.90333,-28.60802,-34.06985,1001.444
0.134843349,-0.4384916,0.06689586,-0.1764321,-0.4685739,0.1011213,0.8557101,41.90333,-28.60802,-34.06985,1001.444
0.137340546,-0.3144297,0.1859934,-0.1763767,-0.4651262,0.09979048,0.8595389,41.90333,-28.60802,-34.06985,1001.444
0.139837265,-0.1284447,0.06681641,-0.0539209,-0.469893,0.09281396,0.8538595,41.90333,-28.60802,-34.06985,1001.444
0.142334938,0.1814061,0.1263547,0.1296966,-0.466011,0.0937655,0.8462077,41.90333,-28.60802,-34.06985,1001.444
0.144832134,0.5531217,0.126315,0.007255496,-0.4666403,0.1021017,0.8533136,41.90333,-28.60802,-34.06985,1001.442
0.147328854,0.4290237,0.1858346,0.1296536,-0.4710774,0.1050607,0.8638037,41.90333,-28.60802,-34.06985,1001.442
0.149826050,-0.0668078,0.1857763,-0.1151879,-0.4666544,0.1037316,0.866199,41.90333,-28.60802,-34.06985,1001.442
0.152323246,-0.3146352,-0.0525193,-0.1763519,-0.4660627,0.09790561,0.8652849,41.90333,-28.60802,-34.06985,1001.442
0.154819965,-0.5623847,0.06661581,-0.05389613,-0.4669393,0.09138887,0.8514796,41.90333,-28.60802,-34.06985,1001.442
0.157317162,-0.2523976,0.1857135,-0.05387919,-0.4654944,0.09235232,0.8486059,41.90333,-28.60802,-34.06985,1001.442
0.159814358,0.1194543,0.1260958,-0.2374629,-0.4693947,0.0923585,0.8552954,41.90333,-28.60802,-34.06985,1001.442
0.162311077,0.3672651,0.06649692,-0.1761881,-0.4671272,0.1021105,0.8547468,41.90333,-28.60802,-34.06985,1001.442
0.164808750,0.4291118,0.1855946,0.06866809,-0.4632818,0.1061993,0.863791,41.90333,-28.60802,-34.06985,1001.442
0.167305946,0.05720447,0.3046549,-0.05375389,-0.467703,0.1075543,0.8633063,41.90333,-28.60802,-34.06985,1001.442
0.169802666,-0.5004722,0.06632201,-0.1149372,-0.4695534,0.1016694,0.8619164,41.90333,-28.60802,-34.06985,1001.442
0.172299862,-0.438353,0.006741866,-0.05370089,-0.4699217,0.0942312,0.8509834,41.90333,-28.60802,-34.06985,1001.442
0.174797058,-0.1903669,0.06629905,-0.1148842,-0.4684432,0.09384829,0.8562396,41.90333,-28.60802,-34.06985,1001.442
0.177293778,-0.004420847,0.1258375,-0.05364793,-0.4625731,0.0935148,0.8581492,41.90333,-28.60802,-34.06985,1001.442
0.179790974,0.4293152,0.1853573,0.06876933,-0.4635815,0.09486593,0.8519305,41.90333,-28.60802,-34.06985,1001.442
0.182288170,0.6150666,0.363977,0.06874772,-0.4691773,0.1073874,0.8532774,42.27085,-28.6001,-34.07061,1001.442
0.184784889,0.4289871,0.4234219,-0.1148745,-0.4700783,0.1035743,0.8599924,42.27085,-28.6001,-34.07061,1001.439
0.187282562,0.05707975,0.1254924,-0.05363819,-0.4670642,0.09874565,0.8571591,42.27085,-28.6001,-34.07061,1001.439
0.189779758,-0.3766728,0.125453,-0.1148215,-0.4689645,0.09580475,0.8581365,42.27085,-28.6001,-34.07061,1001.439
0.192276478,-0.3145924,0.1849729,0.06881513,-0.4615996,0.09349071,0.8548051,42.27085,-28.6001,-34.07061,1001.439
0.194773674,-0.06664519,0.06579614,0.007593318,-0.4582669,0.09843654,0.8562009,42.27085,-28.6001,-34.07061,1001.439
0.197270870,0.4910346,0.06577547,-0.05360927,-0.4631774,0.09976806,0.8547612,42.27085,-28.6001,-34.07061,1001.439
0.199767590,0.2430319,0.06575481,-0.05359243,-0.465608,0.09926246,0.8571546,42.27085,-28.6001,-34.07061,1001.439
0.202264786,-0.06685487,0.3635306,-0.05357559,-0.4679866,0.09584508,0.8595687,42.27085,-28.6001,-34.07061,1001.439
0.204761982,-0.06683387,0.1847385,0.06884164,-0.4675501,0.09815965,0.8504763,42.27085,-28.6001,-34.07061,1001.439
0.207259655,-0.2526991,-0.0535567,0.007619815,-0.4680028,0.09622084,0.8514457,42.27085,-28.6001,-34.07061,1001.439
0.209756374,0.305039,0.06557872,0.06881762,-0.4655886,0.09770992,0.8500007,42.27085,-28.6001,-34.07061,1001.439
0.212253571,0.6147537,0.1846767,-0.0536044,-0.4671263,0.1021234,0.8557021,42.27085,-28.6001,-34.07061,1001.439
0.214750767,0.1808259,0.1250594,-0.175988,-0.4636316,0.09841765,0.8633692,42.27085,-28.6001,-34.07061,1001.439
0.217247486,-0.2529655,0.1845794,-0.1759327,-0.4646343,0.09985252,0.8633595,42.27085,-28.6001,-34.07061,1001.439
0.219744682,-0.06699979,0.06540283,-0.1758774,-0.4680443,0.09928726,0.8628879,42.27085,-28.6001,-34.07061,1001.439
0.222241879,0.05694544,0.1249416,0.1301789,-0.4680001,0.0962595,0.8543115,42.27085,-28.6001,-34.07061,1001.439
0.224738598,0.2428138,0.1249023,0.1913382,-0.4670526,0.09769129,0.850957,42.27085,-28.6001,-34.07061,1001.441
0.227236271,0.3666617,0.005744487,-0.114723,-0.4656518,0.1016825,0.8566597,42.27085,-28.6001,-34.07061,1001.441
0.229733467,0.2426223,0.1844206,-0.1146869,-0.4641382,0.09936485,0.8624073,42.27085,-28.6001,-34.07061,1001.441
0.232230187,-0.005302235,0.1248033,-0.05345068,-0.4651491,0.1012915,0.8628719,41.52948,-28.24706,-34.07551,1001.441
0.234727383,-0.1292247,-0.05391376,0.00776631,-0.4681529,0.1050464,0.8580701,41.52948,-28.24706,-34.07551,1001.441
0.237224579,-0.1911462,-0.05389682,-0.1146365,-0.4675864,0.1006892,0.8581009,41.52948,-28.24706,-34.07551,1001.441
0.239721298,-0.005199917,-0.05387989,0.1302003,-0.4641157,0.09785741,0.8585967,41.52948,-28.24706,-34.07551,1001.441
0.242218494,0.1187259,0.1248149,0.007758981,-0.4601876,0.09642112,0.8538281,41.52948,-28.24706,-34.07551,1001.441
0.244715691,0.1186886,0.1247757,-0.1146439,-0.462209,0.1002808,0.8552346,41.52948,-28.24706,-34.07551,1001.441
0.247212410,0.05668922,0.06517723,-0.1146078,-0.4670682,0.09868766,0.8528606,41.52948,-28.24706,-34.07551,1001.441
0.249710083,0.05667141,0.06515676,-0.05337164,-0.4651339,0.1002887,0.8604907,41.52948,-28.24706,-34.07551,1001.441
0.252207279,-0.005308487,0.1842549,-0.1145551,-0.4636674,0.09973179,0.8528512,41.52948,-28.24706,-34.07551,1001.441
0.254703999,0.1186174,0.3033156,0.00788132,-0.4641838,0.1017591,0.860002,41.52948,-28.24706,-34.07551,1001.441
0.257201195,-0.005344085,0.1841017,0.007878844,-0.4641331,0.098828,0.8585898,41.52948,-28.24706,-34.07551,1001.441
0.259698391,-0.005342409,0.1244846,-0.114524,-0.4665655,0.09829663,0.8590727,41.52948,-28.24706,-34.07551,1001.441
0.299652100,0.3658157,0.1237857,0.00779814,-0.4660435,0.0957389,0.848582,41.90333,-28.60802,-34.06985,1001.442
0.302148819,0.3037387,-0.0549311,0.06899589,-0.4626594,0.09837422,0.8585922,41.90333,-28.60802,-34.06985,1001.442
0.304646015,0.117757,0.06420476,0.007774015,-0.4597777,0.101407,0.8628679,41.90333,-28.60802,-34.06985,1001.442
0.307143211,0.0557579,-0.05493401,-0.05342863,-0.4608569,0.1066212,0.8551886,41.90333,-28.60802,-34.06985,1001.438
0.309639931,-0.1301459,0.06420185,0.007788357,-0.4622337,0.101756,0.8566571,41.90333,-28.60802,-34.06985,1001.438
0.312137604,-0.06814291,0.004622377,0.007785911,-0.467042,0.09784593,0.8624198,41.90333,-28.60802,-34.06985,1001.438
0.314634800,0.05580267,-0.1144977,-0.1146169,-0.4646078,0.09840308,0.8638474,41.90333,-28.60802,-34.06985,1001.438
0.317131519,0.05578514,0.1237755,-0.05338073,-0.4650549,0.09593388,0.861477,41.90333,-28.60802,-34.06985,1001.438
0.319628716,-0.006194472,-0.05494129,0.007836243,-0.4690965,0.1030584,0.8561742,41.90333,-28.60802,-34.06985,1001.438
0.322125912,-0.06815462,0.06419457,0.1302342,-0.4603013,0.1027171,0.8528278,41.90333,-28.60802,-34.06985,1001.438
0.324622631,-0.006171115,0.183293,-0.05340734,-0.4592687,0.09988431,0.8571464,41.90333,-28.60802,-34.06985,1001.438
0.327121258,0.1797171,0.302354,-0.1145908,-0.4611745,0.0974738,0.8614637,41.90333,-28.60802,-34.06985,1001.438
0.329617024,0.1796606,0.3618183,0.06904584,-0.4738572,0.09617212,0.8571815,41.90333,-28.60802,-34.06985,1001.438
0.332113743,-0.006282084,0.1234675,0.1914246,-0.472854,0.09474368,0.8576688,41.53595,-28.60866,-33.6864,1001.438
0.334611416,-0.1921664,-0.05524922,0.06896402,-0.4705098,0.1001087,0.8557185,41.53595,-28.60866,-33.6864,1001.438
0.337108612,-0.1301439,0.123446,-0.2982589,-0.4650863,0.09731245,0.8557352,41.53595,-28.60866,-33.6864,1001.438
0.339605331,0.1177453,0.1829666,-0.05336435,-0.4640533,0.09387194,0.8509825,41.53595,-28.60866,-33.6864,1001.438
0.342102528,0.4894809,0.2424684,0.1914532,-0.4691553,0.1058736,0.8489892,41.53595,-28.60866,-33.6864,1001.438
0.344599724,0.6132513,0.3615108,0.06899267,-0.4686151,0.10358,0.8580809,41.53595,-28.60866,-33.6864,1001.438
0.347096443,0.2412861,0.1827193,-0.05342941,-0.4700222,0.1007205,0.8643117,41.53595,-28.60866,-33.6864,1001.441
0.349593639,-0.3784106,0.06354333,0.130188,-0.4656183,0.1003361,0.8647896,41.53595,-28.60866,-33.6864,1001.441
0.352090836,-0.3782917,0.2422013,0.06894688,-0.4592179,0.0969532,0.8557343,41.53595,-28.60866,-33.6864,1001.441
0.354587555,0.1794859,0.1825659,0.06892522,-0.4630949,0.09485066,0.8500197,41.53595,-28.60866,-33.6864,1001.441
0.357085228,0.48924,0.1825085,0.007703365,-0.4616986,0.09877743,0.8509461,41.53595,-28.60866,-33.6864,1001.441
0.359582424,0.5510484,0.3015698,0.06890114,-0.4636837,0.1013294,0.8633484,41.53595,-28.60866,-33.6864,1001.441
0.362079144,-0.06874564,0.2419157,0.007679299,-0.4710137,0.1010946,0.8576224,41.53595,-28.60866,-33.6864,1001.441
0.364576340,-0.3165724,-0.05595676,0.06887709,-0.4616616,0.09686846,0.853348,41.53595,-28.60866,-33.6864,1001.441
0.367073536,0.0552996,-0.1154985,0.06885545,-0.454372,0.09957493,0.8624001,41.53595,-28.60866,-33.6864,1001.441
0.369570732,0.7368652,0.4205715,0.007633617,-0.4577242,0.09556748,0.8586093,41.53595,-28.60866,-33.6864,1001.441
0.372067452,0.6127096,0.5395579,0.007631219,-0.4768607,0.1005412,0.8619287,41.53595,-28.60866,-33.6864,1001.441
0.374564648,0.3027066,0.06291407,0.06882902,-0.4745095,0.1053951,0.8580714,41.53595,-28.60866,-33.6864,1001.441
0.377062321,-0.007198937,0.003334999,0.0688074,-0.4628144,0.1071289,0.8599628,41.53595,-28.60866,-33.6864,1001.441
0.379559040,-0.4409313,0.06289325,0.007585581,-0.4622043,0.09973752,0.8509396,41.53595,-28.60866,-33.6864,1001.441
0.382056236,-0.1929444,0.2415514,0.1299836,-0.4689378,0.09374758,0.8495532,41.5358,-28.61595,-34.06908,1001.441
0.384553433,-0.006997533,0.3010348,-0.05365784,-0.4654827,0.09191213,0.8519527,41.5358,-28.61595,-34.06908,1001.441
0.387050152,0.1788909,0.2413809,0.1911598,-0.465032,0.09443289,0.858144,41.5358,-28.61595,-34.06908,1001.442
0.389550209,0.364721,0.2413051,0.06869937,-0.4680534,0.09976611,0.8624067,41.5358,-28.61595,-34.06908,1001.442
0.392044544,0.4265685,0.2412293,-0.05372262,-0.4705893,0.104457,0.8542545,41.5358,-28.61595,-34.06908,1001.442
0.394541264,0.05466196,0.2411535,-0.1149059,-0.4695648,0.102116,0.8590472,41.5358,-28.61595,-34.06908,1001.442
0.397038937,-0.0692794,0.1219591,-0.1148698,-0.4660386,0.09580978,0.8538359,41.5358,-28.61595,-34.06908,1001.442
0.399536133,0.1785907,0.06236154,0.06876685,-0.4623067,0.1055869,0.8528085,41.5358,-28.61595,-34.06908,1001.442
0.402032852,0.1165725,0.2410198,0.1911456,-0.4652257,0.1050708,0.8552023,41.5358,-28.61595,-34.06908,1001.442
0.404530048,0.05457383,0.06226622,0.1298854,-0.4646921,0.1026806,0.8571297,41.5358,-28.61595,-34.06908,1001.442
0.407027245,0.1165188,0.1813653,0.06864439,-0.4676189,0.1026626,0.8604752,41.5358,-28.61595,-34.06908,1001.442
0.409523964,0.1784443,0.121749,0.1910232,-0.466158,0.1026362,0.8561755,41.5358,-28.61595,-34.06908,1001.442
0.412021160,-0.06946016,0.002592131,0.007362611,-0.4665261,0.09581216,0.8547914,41.5358,-28.61595,-34.06908,1001.442
0.414518356,-0.007476248,0.002591319,-0.0538399,-0.4592175,0.09695964,0.856212,41.5358,-28.61595,-34.06908,1001.442
0.417015076,-0.007473901,0.300387,-0.05382299,-0.4685178,0.09826751,0.8600294,41.5358,-28.61595,-34.06908,1001.442
0.419512749,-0.1313957,0.1216147,0.06859432,-0.4719734,0.1000965,0.8571524,41.5358,-28.61595,-34.06908,1001.442
0.422009945,0.05453181,0.06201723,-0.1150278,-0.4700836,0.1034969,0.854261,41.5358,-28.61595,-34.06908,1001.442
0.424506664,0.1784389,0.121557,-0.05379149,-0.4636652,0.099764,0.8552392,41.5358,-28.61595,-34.06908,1001.442
0.427003861,0.1783828,0.06195956,-0.1149748,-0.4689689,0.09574031,0.8533604,41.5358,-28.61595,-34.06908,1001.434
0.429501057,-0.1314837,0.1810587,0.007461729,-0.4690375,0.09963557,0.854288,41.5358,-28.61595,-34.06908,1001.434
0.431997776,-0.1934045,0.3001204,0.007459384,-0.4650896,0.09787506,0.8614632,41.90347,-28.60074,-33.68716,1001.434
0.434494972,-0.3172679,0.1809075,0.007457041,-0.4699199,0.09425697,0.8528939,41.90347,-28.60074,-33.68716,1001.434
0.436992169,-0.2552061,0.00217279,-0.1149457,-0.4660551,0.09679326,0.8547841,41.90347,-28.60074,-33.68716,1001.434
0.439488888,0.0546845,0.2404093,-0.05370939,-0.4695071,0.09867381,0.8557281,41.90347,-28.60074,-33.68716,1001.434
0.441986561,-0.007294774,0.1807745,0.06870788,-0.466596,0.09968809,0.8542862,41.90347,-28.60074,-33.68716,1001.434
0.444483757,-0.06925457,0.2998363,0.1298865,-0.468596,0.1026352,0.8599983,41.90347,-28.60074,-33.68716,1001.434
0.446980476,-0.06923281,0.1806235,0.007445293,-0.4675158,0.09743389,0.8686327,41.90347,-28.60074,-33.68716,1001.434
0.449477673,-0.1931352,0.1210074,0.06864315,-0.4641378,0.0993713,0.862885,41.90347,-28.60074,-33.68716,1001.434
0.451974869,-0.2550367,0.240088,0.007421389,-0.4627231,0.1023404,0.8647736,41.90347,-28.60074,-33.68716,1001.434
0.454472065,-0.3169186,0.1804533,0.06861926,-0.4622021,0.09976973,0.8533276,41.90347,-28.60074,-33.68716,1001.434
0.456968784,-0.254857,0.3590745,-0.0538027,-0.4666134,0.1006587,0.8542793,41.90347,-28.60074,-33.68716,1001.434
0.459465981,-0.1928148,0.418521,-0.0537858,-0.4641322,0.09884089,0.8595451,41.90347,-28.60074,-33.68716,1001.434
0.461963654,-0.3166784,0.3588302,-0.0537689,-0.4650485,0.09541637,0.8590924,41.90347,-28.60074,-33.68716,1001.434
0.464460373,-0.3165789,0.1800396,0.007448192,-0.4670951,0.1001307,0.851895,41.90347,-28.60074,-33.68716,1001.434
0.466957569,-0.2545174,0.179983,-0.05375435,-0.4676345,0.103659,0.8623787,41.90347,-28.60074,-33.68716,1001.435
0.469454765,-0.2544374,0.2394858,-0.1149377,-0.4627044,0.1013891,0.8662133,41.90347,-28.60074,-33.68716,1001.435
0.471951485,-0.1923954,0.4180884,0.007498848,-0.4651422,0.1007804,0.8609648,41.90347,-28.60074,-33.68716,1001.435
0.474448681,-0.06841078,0.1797199,-0.05370371,-0.4616928,0.0988612,0.8571551,41.90347,-28.60074,-33.68716,1001.435
0.476945877,-0.2542756,0.2987821,-0.114887,-0.467066,0.09871988,0.8552486,41.90347,-28.60074,-33.68716,1001.435
0.479442597,-0.3161578,0.2986882,-0.05365074,-0.4690736,0.1015574,0.8528413,41.90347,-28.60074,-33.68716,1001.435
0.481940270,-0.3780205,0.1199165,0.007566311,-0.467563,0.09919468,0.8552455,41.90333,-28.60802,-34.06985,1001.435
0.484437466,-0.1300534,0.1198788,-0.2372369,-0.4681152,0.1025361,0.8518784,41.90333,-28.60802,-34.06985,1001.435
0.486934185,-0.006088369,0.2389597,-0.1759621,-0.4651488,0.1006837,0.8538006,41.90333,-28.60802,-34.06985,1001.435
0.489431381,-0.1919727,0.2388847,-0.1759069,-0.4656271,0.1002073,0.8552372,41.90333,-28.60802,-34.06985,1001.435
0.491928578,-0.1299503,0.119691,-0.0534512,-0.4680838,0.1011576,0.8576202,41.90333,-28.60802,-34.06985,1001.435
0.494425297,-0.1918716,0.1196534,-0.0534344,-0.4646418,0.09974299,0.8552399,41.90333,-28.60802,-34.06985,1001.435
0.496922493,-0.1298492,0.4174123,-0.1146178,-0.4680491,0.09921639,0.857634,41.90333,-28.60802,-34.06985,1001.435
0.499419689,-0.1298084,0.1194847,-0.05338161,-0.4655815,0.09781301,0.8576426,41.90333,-28.60802,-34.06985,1001.435
0.501916409,-0.377616,0.1194471,0.1302358,-0.4632094,0.1017479,0.8576131,41.90333,-28.60802,-34.06985,1001.435
0.504414082,-0.2535732,0.05985031,0.06899465,-0.4665703,0.09822576,0.853819,41.90333,-28.60802,-34.06985,1001.435
0.506911278,-0.1915314,0.000272207,-0.1146276,-0.4651922,0.1031102,0.8537833,41.90333,-28.60802,-34.06985,1001.433
0.509407997,-0.1914713,0.17895,-0.1145916,-0.4656314,0.100757,0.86001,41.90333,-28.60802,-34.06985,1001.433
0.511905193,-0.2533732,0.0597752,-0.05335542,-0.4651114,0.09878122,0.8566801,41.90333,-28.60802,-34.06985,1001.433
0.514402390,-0.005445257,0.1193157,-0.05333865,-0.4651006,0.09832814,0.8590717,41.90333,-28.60802,-34.06985,1001.433
0.516899109,-0.2532919,0.1788375,-0.1145221,-0.4616897,0.09890629,0.8604985,41.90333,-28.60802,-34.06985,1001.433
0.519396305,-0.1912502,0.0001034588,-0.1756863,-0.4641856,0.1017334,0.8580915,41.90333,-28.60802,-34.06985,1001.433
0.521893501,-0.06726598,0.000103429,0.007969477,-0.4676164,0.1020871,0.853792,41.90333,-28.60802,-34.06985,1001.433
0.524391174,-0.2531311,-0.0594559,-0.05323323,-0.4676193,0.1026562,0.8599976,41.90333,-28.60802,-34.06985,1001.433
0.526887894,-0.00520324,0.05968138,-0.1756169,-0.4660867,0.09877954,0.8581136,41.90333,-28.60802,-34.06985,1001.433
0.529385090,-0.0671637,0.1192219,-0.1143615,-0.466115,0.1002032,0.8557152,41.90333,-28.60802,-34.06985,1001.433
0.531882286,-0.005180508,6.587058E-05,0.069275,-0.4690522,0.1006448,0.8571467,41.90347,-28.60074,-33.68716,1001.433
0.534379006,-0.005178884,0.2383031,-0.1143474,-0.4676133,0.1021322,0.8571353,41.90347,-28.60074,-33.68716,1001.433
0.536876202,-0.005177259,0.1191096,-0.1755116,-0.4665321,0.09633613,0.8576537,41.90347,-28.60074,-33.68716,1001.433
0.539373398,0.1187485,-0.05960573,-0.1142563,-0.4671372,0.1025765,0.8533105,41.90347,-28.60074,-33.68716,1001.433
0.541870117,0.05674915,-2.770871E-05,-0.05302021,-0.4676095,0.1015761,0.851885,41.90347,-28.60074,-33.68716,1001.433
0.544367790,0.1806555,0.1190909,-0.1142038,-0.4641909,0.101656,0.8523601,41.90347,-28.60074,-33.68716,1001.433
0.546864987,0.1186367,-6.511807E-05,0.008232524,-0.4676676,0.1050118,0.8547264,41.90347,-28.60074,-33.68716,1001.435
0.549361706,0.1805615,0.0594942,-0.05297026,-0.4656354,0.100699,0.8557114,41.90347,-28.60074,-33.68716,1001.435
0.551858902,-0.005381517,-0.1192024,-0.05295362,-0.4612983,0.1042357,0.8590273,41.90347,-28.60074,-33.68716,1001.435
0.554356098,-0.06734192,-0.05960564,-0.05293699,-0.4675556,0.09869004,0.8538162,41.90347,-28.60074,-33.68716,1001.435
0.556852818,0.1185655,-2.76193E-05,0.06948005,-0.4714352,0.09716301,0.8547847,41.90347,-28.60074,-33.68716,1001.435
0.559350014,0.1804904,-0.1191462,0.1918586,-0.4666381,0.1021339,0.8557017,41.90347,-28.60074,-33.68716,1001.435
0.561847210,0.1804337,9.819865E-06,-0.1142027,-0.4636694,0.1003137,0.860012,41.90347,-28.60074,-33.68716,1001.435
0.564343929,0.2423391,0.1191284,-0.1141668,-0.469054,0.1006191,0.8552362,41.90347,-28.60074,-33.68716,1001.435
0.566841602,0.1183387,-0.0595869,0.008269487,-0.4690262,0.09918894,0.8571571,41.90347,-28.60074,-33.68716,1001.435
0.569338799,-0.0675847,-0.1191275,0.008266889,-0.46848,0.09637143,0.8633866,41.90347,-28.60074,-33.68716,1001.435
0.571835518,0.1802849,0.05958784,-0.05293591,-0.4637038,0.1022614,0.8604758,41.90347,-28.60074,-33.68716,1001.435
0.574332714,0.3041524,0.1191284,-0.05291928,-0.4666465,0.1032334,0.8652472,41.90347,-28.60074,-33.68716,1001.435
0.576829910,0.1801327,0.2382096,-0.05290265,-0.4631669,0.09930854,0.8566751,41.90347,-28.60074,-33.68716,1001.435
0.579326630,0.2420382,-0.05966174,0.008314167,-0.4641609,0.1002581,0.856669,41.90347,-28.60074,-33.68716,1001.435
0.581823826,0.4278485,-0.1787616,0.008311556,-0.4691043,0.1035566,0.857126,41.90995,-28.96113,-33.23427,1001.435
0.584321022,0.3037899,0.1190911,0.008308944,-0.467616,0.1020936,0.8542696,41.90995,-28.96113,-33.23427,1001.435
0.586817742,-0.1300402,0.1190537,-0.05289387,-0.4714798,0.1001843,0.8628835,41.90995,-28.96113,-33.23427,1001.436
0.589316368,-0.3778477,-0.0001023486,0.008322951,-0.4689794,0.09619984,0.8514464,41.90995,-28.96113,-33.23427,1001.436
0.591812611,-0.06791859,-0.1192209,-0.05287987,-0.4698284,0.08886071,0.8486333,41.90995,-28.96113,-33.23427,1001.436
0.594309330,0.4277995,-0.1191835,-0.05286326,-0.4636674,0.09973179,0.8528512,41.90995,-28.96113,-33.23427,1001.436
0.596806526,0.6755135,0.1190912,0.06955376,-0.4632833,0.1055659,0.8528093,41.90995,-28.96113,-33.23427,1001.436
0.599303723,0.6753013,0.1786131,0.1307321,-0.4700914,0.1039951,0.8552127,41.90995,-28.96113,-33.23427,1001.436
0.601800442,0.2413544,-0.05968025,0.06949084,-0.4667035,0.1060743,0.8599727,41.90995,-28.96113,-33.23427,1001.436
0.604297638,-0.3163802,0.05945709,-0.0529314,-0.4661428,0.1016333,0.8537944,41.90995,-28.96113,-33.23427,1001.436
0.606794834,-0.3162808,0.1189977,0.06948563,-0.4650121,0.09288678,0.8514678,41.90995,-28.96113,-33.23427,1001.436
0.609292507,-0.1302952,-0.0001582727,-0.0529366,-0.4655421,0.09532854,0.8533613,41.90995,-28.96113,-33.23427,1001.436
0.611789227,0.3034804,-0.0001582205,-0.1753204,-0.4640802,0.09531496,0.850017,41.90995,-28.96113,-33.23427,1001.436
0.614286423,0.7990818,0.1785197,-0.05286489,-0.4646747,0.10171,0.8571366,41.90995,-28.96113,-33.23427,1001.436
0.616783619,0.4890203,0.1784637,0.008351919,-0.4701459,0.1074824,0.8618752,41.90995,-28.96113,-33.23427,1001.436
0.619280338,0.2410183,-0.0002703145,0.008349296,-0.4690838,0.1026311,0.8604763,41.90995,-28.96113,-33.23427,1001.436
0.621777535,-0.06886789,-0.0002702326,-0.05285353,-0.468447,0.09440447,0.8614899,41.90995,-28.96113,-33.23427,1001.436
0.624274731,-0.3786567,0.1188485,-0.05283692,-0.468502,0.09666342,0.8490545,41.90995,-28.96113,-33.23427,1001.436
0.626771450,0.1791211,0.1783704,0.008379877,-0.4641372,0.09815586,0.8447424,41.90995,-28.96113,-33.23427,1001.437
0.629269123,0.5508373,0.1187551,0.06957744,-0.4666412,0.1020888,0.8523584,41.90995,-28.96113,-33.23427,1001.437
0.631766319,0.5506643,0.05915847,-0.05284482,-0.4642081,0.1032408,0.8619021,41.54227,-28.97755,-33.67998,1001.437
0.634263039,0.364605,0.05913989,0.1919726,-0.4686294,0.1045957,0.8614173,41.54227,-28.97755,-33.67998,1001.437
0.636760235,-0.06924416,-0.05999729,0.1307121,-0.4680999,0.1021475,0.8590462,41.54227,-28.97755,-33.67998,1001.437
0.639257431,-0.06922241,0.1186995,0.008270613,-0.4675561,0.0986836,0.8533385,41.54227,-28.97755,-33.67998,1001.437
0.641754151,0.1166856,0.05910287,0.008268015,-0.4693873,0.09185387,0.8538661,41.54227,-28.97755,-33.67998,1001.437
0.644251347,0.2405731,-0.0600343,-0.05293478,-0.4719301,0.09705586,0.8476208,41.54227,-28.97755,-33.67998,1001.437
0.646748543,0.2404976,-0.0004561394,-0.05291815,-0.47193,0.09767002,0.8571697,41.54227,-28.97755,-33.67998,1001.437
0.649245262,0.3023841,0.1186626,0.06949887,-0.465068,0.09635475,0.8566974,41.54227,-28.97755,-33.67998,1001.437
0.651742935,0.3642512,0.1186253,-0.05292337,-0.4694902,0.09769677,0.8552573,41.54227,-28.97755,-33.67998,1001.437
0.654240132,0.1162884,-0.06008984,-0.1141069,-0.4704929,0.09913165,0.8552477,41.54227,-28.97755,-33.67998,1001.437
0.656736851,-0.1315965,-0.06007096,-0.05287089,-0.4670081,0.09589186,0.8614784,41.54227,-28.97755,-33.67998,1001.437
0.659234047,0.05433112,-0.06005209,0.008345922,-0.4674822,0.09486566,0.8581424,41.54227,-28.97755,-33.67998,1001.437
0.661731243,0.3021624,0.05908538,0.1919439,-0.4631613,0.09877813,0.8533353,41.54227,-28.97755,-33.67998,1001.437
0.664227963,0.2401054,-0.0004924834,0.1918836,-0.4650767,0.09684004,0.8566939,41.54227,-28.97755,-33.67998,1001.437
0.666725159,0.3019921,0.05906697,0.1918233,-0.4700792,0.1035614,0.8590372,41.54227,-28.97755,-33.67998,1001.435
0.669222355,0.177973,-0.1196295,0.06936266,-0.4695735,0.1026013,0.8590438,41.54227,-28.97755,-33.67998,1001.435
0.671719074,0.0539929,-0.1195919,0.06934086,-0.4651006,0.09832814,0.8590717,41.54227,-28.97755,-33.67998,1001.435
0.674216747,0.05397594,-0.05999503,0.06931908,-0.4656028,0.09872561,0.8533371,41.54227,-28.97755,-33.67998,1001.435
0.676713944,-0.008003108,-0.05997618,-0.0531031,-0.4631488,0.09773666,0.8480884,41.54227,-28.97755,-33.67998,1001.435
0.679211140,-0.008000597,-0.0003980398,-0.05308642,-0.4607345,0.0998399,0.8561923,41.54227,-28.97755,-33.67998,1001.435
0.681707859,0.2398503,0.1187207,-0.05306974,-0.4671471,0.1036566,0.8614231,41.5358,-28.61595,-34.06908,1001.435
0.684205055,0.1778128,-0.0004352108,-0.1754535,-0.4642412,0.1045936,0.8542498,41.5358,-28.61595,-34.06908,1001.435
0.686702252,-0.008129299,-0.179113,0.008202254,-0.4660836,0.09882465,0.861457,41.5358,-28.61595,-34.06908,1001.435
0.689198971,-0.1320509,-0.1790567,0.008199677,-0.4695565,0.1016243,0.858573,41.5358,-28.61595,-34.06908,1001.435
0.691696167,-0.1320094,-0.1790005,-0.1142033,-0.4700297,0.1006109,0.8561922,41.5358,-28.61595,-34.06908,1001.435
0.694193840,-0.2558922,-0.1193849,0.06943318,-0.4675229,0.0973308,0.8609908,41.5358,-28.61595,-34.06908,1001.435
0.696690559,-0.007963397,-0.0002288148,0.06941137,-0.4675617,0.099214,0.8566784,41.5358,-28.61595,-34.06908,1001.435
0.699187756,-0.007960893,-0.1193473,0.00818936,-0.4680141,0.09666748,0.8485765,41.5358,-28.61595,-34.06908,1001.435
0.701684952,-0.00795839,0.05936805,0.008186786,-0.4622428,0.1022349,0.8561761,41.5358,-28.61595,-34.06908,1001.435
0.704181671,0.1159683,0.2380273,-0.05301599,-0.4655922,0.09888025,0.8648,41.5358,-28.61595,-34.06908,1001.435
0.706678867,0.05396977,-0.0002846792,-0.1141995,-0.4661371,0.1017171,0.8600034,41.5358,-28.61595,-34.06908,1001.437
0.709176063,-0.1319335,-0.1194032,-0.05296345,-0.4647716,0.1070289,0.8556657,41.5358,-28.61595,-34.06908,1001.437
0.711672783,-0.131892,0.1784308,0.008253386,-0.4660743,0.09773808,0.8528668,41.5358,-28.61595,-34.06908,1001.437
0.714170456,-0.1318506,-0.05986243,0.008250793,-0.4684784,0.09578304,0.8557481,41.5358,-28.61595,-34.06908,1001.437
0.716667652,-0.1318091,0.05927497,-0.052952,-0.4627242,0.1017133,0.8542694,41.5358,-28.61595,-34.06908,1001.437
0.719164371,0.363929,0.1188157,-0.1141356,-0.4620866,0.09349953,0.8562383,41.5358,-28.61595,-34.06908,1001.437
0.721661568,0.2398905,0.05921903,0.1307011,-0.4637073,0.1022098,0.8566548,41.5358,-28.61595,-34.06908,1001.437
0.724158764,-0.1939195,0.05920042,0.2530604,-0.4655771,0.09787744,0.8624188,41.5358,-28.61595,-34.06908,1001.437
0.726655483,-0.1938586,0.1783004,-0.05302007,-0.4656062,0.09928823,0.8590651,41.5358,-28.61595,-34.06908,1001.437
0.729152679,-0.2557598,0.05912581,-0.05300342,-0.4686144,0.1029787,0.8494872,41.5358,-28.61595,-34.06908,1001.437
0.731649876,-0.007831082,0.1782258,-0.05298676,-0.4680395,0.09874397,0.8585927,42.27085,-28.6001,-34.07061,1001.437
0.734146595,-0.1937149,0.2972884,-0.1141703,-0.466612,0.100678,0.8557121,42.27085,-28.6001,-34.07061,1001.437
0.736644268,-0.193654,0.1780764,-0.05293425,-0.4661077,0.0996986,0.8542858,42.27085,-28.6001,-34.07061,1001.437
0.739141464,-0.1316311,0.1184612,-0.05291762,-0.4631096,0.09585992,0.8528785,42.27085,-28.6001,-34.07061,1001.437
0.741638184,-0.1935518,0.05886469,-0.1141012,-0.4695131,0.09919776,0.8585903,42.27085,-28.6001,-34.07061,1001.437
0.744135380,-0.06956686,0.0588462,-0.1752656,-0.4627133,0.1012602,0.856661,42.27085,-28.6001,-34.07061,1001.437
0.746632576,-0.1934692,0.118387,0.008390115,-0.4621816,0.09884425,0.8566779,42.27085,-28.6001,-34.07061,1001.437
0.749129772,-0.2553705,0.2970277,-0.05281273,-0.4641344,0.09880868,0.857157,42.27085,-28.6001,-34.07061,1001.434
0.751626491,0.05452018,0.05869721,-0.1751965,-0.4671437,0.103094,0.8556952,42.27085,-28.6001,-34.07061,1001.434
0.754123688,-0.1313832,0.2373567,-0.05274109,-0.4710667,0.1039934,0.8566464,42.27085,-28.6001,-34.07061,1001.434
0.756621361,-0.06937985,0.2372821,-0.1751249,-0.4715029,0.1010712,0.8566675,42.27085,-28.6001,-34.07061,1001.434
0.759118080,-0.1313201,-0.06058894,-0.05266951,-0.4670386,0.09728332,0.8566919,42.27085,-28.6001,-34.07061,1001.434
0.761615276,-0.007354714,0.118108,0.008547244,-0.4640462,0.09397504,0.8586244,42.27085,-28.6001,-34.07061,1001.434
0.764112472,0.05460969,0.1180709,-0.1138558,-0.4631522,0.09829928,0.8538164,42.27085,-28.6001,-34.07061,1001.434
0.766609192,-0.31718,0.0584745,-0.2362205,-0.4660852,0.09819116,0.8504753,42.27085,-28.6001,-34.07061,1001.434
0.769106388,-0.1931562,0.1775747,-0.1137459,-0.4675114,0.09627645,0.8547887,42.27085,-28.6001,-34.07061,1001.434
0.771603584,-0.007209234,0.05840033,-0.05250993,-0.4700433,0.1010254,0.850935,42.27085,-28.6001,-34.07061,1001.434
0.774100304,-0.06916906,0.05838199,0.008706769,-0.4710455,0.1024667,0.851403,42.27085,-28.6001,-34.07061,1001.434
0.776597500,-0.06914733,0.2966008,-0.1136964,-0.4730351,0.1049542,0.8590291,42.27085,-28.6001,-34.07061,1001.434
0.779095173,-0.0691256,0.05827047,-0.1136606,-0.4652408,0.1060736,0.8575835,41.53595,-28.60866,-33.6864,1001.434
0.781591892,-0.1930281,0.1178115,-0.05242474,-0.4646921,0.1026806,0.8571297,41.53595,-28.60866,-33.6864,1001.434
0.784089088,-0.06904324,0.1177744,-0.1136085,-0.4631197,0.09632588,0.8514422,41.53595,-28.60866,-33.6864,1001.434
0.786586285,0.1168647,-0.001381151,-0.2359732,-0.4695387,0.1006601,0.8590576,41.53595,-28.60866,-33.6864,1001.434
0.789083004,0.1787901,0.2368565,-0.1746989,-0.4676293,0.1031221,0.8585612,41.53595,-28.60866,-33.6864,1001.435
0.791580200,0.1787339,0.2367821,-0.1134438,-0.4651896,0.1031489,0.856649,41.53595,-28.60866,-33.6864,1001.435
0.794077396,-0.06917059,0.1771484,-0.05220792,-0.466632,0.10161,0.8528395,41.53595,-28.60866,-33.6864,1001.435
0.796574116,-0.2550351,-0.06114447,0.009008678,-0.4651344,0.1002822,0.8600131,41.53595,-28.60866,-33.6864,1001.435
0.799071789,-0.06906873,-0.001565963,0.07020605,-0.4666744,0.1046635,0.8633264,41.53595,-28.60866,-33.6864,1001.435
0.801568985,-0.1310091,0.05799383,0.008983792,-0.4676333,0.1030642,0.8542627,41.53595,-28.60866,-33.6864,1001.435
0.804065704,-0.1929301,-0.001583688,-0.05221923,-0.4704599,0.09716468,0.8533511,41.53595,-28.60866,-33.6864,1001.435
0.806562900,-0.06894527,0.236654,-0.05220283,-0.46214,0.096392,0.8547847,41.53595,-28.60866,-33.6864,1001.435
0.809060097,-0.06892361,-0.001657538,-0.235787,-0.4621981,0.09982773,0.8576262,41.53595,-28.60866,-33.6864,1001.435
0.811556816,-0.1928261,-0.001657017,-0.1745128,-0.4651453,0.1007353,0.8576215,41.53595,-28.60866,-33.6864,1001.435
0.814054012,-0.06884138,-0.001656495,-0.05205753,-0.4671121,0.1011077,0.8523657,41.53595,-28.60866,-33.6864,1001.435
0.816551208,0.1790286,0.05790333,-0.05204117,-0.4622546,0.1026751,0.8528293,41.53595,-28.60866,-33.6864,1001.435
0.819048881,0.05504819,0.1174444,-0.1744252,-0.4651783,0.1027023,0.8595182,41.53595,-28.60866,-33.6864,1001.435
0.821545601,-0.006931193,0.05784824,0.009230175,-0.4710088,0.1011654,0.8628762,41.53595,-28.60866,-33.6864,1001.435
0.824042797,-0.3787016,-0.06128854,-0.2355735,-0.4651487,0.1012979,0.8633495,41.53595,-28.60866,-33.6864,1001.435
0.826539993,-0.5025067,-0.06126928,-0.1130991,-0.4660642,0.09727211,0.8543031,41.53595,-28.60866,-33.6864,1001.435
0.829036713,-0.4403868,-0.001690738,-0.1742638,-0.4684299,0.09281971,0.8519479,41.52962,-28.23978,-33.69283,1001.437
0.831533909,0.1793724,0.05786909,-0.174209,-0.4665904,0.09915769,0.8509463,41.52962,-28.23978,-33.69283,1001.437
0.834031105,0.2412782,0.2365288,0.009446289,-0.4652174,0.104579,0.8547281,41.52962,-28.23978,-33.69283,1001.437
0.836527824,-0.006645977,0.1768952,-0.1129571,-0.47296,0.1005415,0.8557168,41.52962,-28.23978,-33.69283,1001.437
0.839025021,-0.1305681,0.1768396,-0.1129216,-0.4714947,0.1005794,0.8561934,41.52962,-28.23978,-33.69283,1001.437
0.841522694,-0.2544512,0.2363434,-0.1740863,-0.4655937,0.09824676,0.8538182,41.52962,-28.23978,-33.69283,1001.437
0.844019413,-0.006522939,-0.001968078,-0.1740316,-0.4656844,0.1036559,0.859034,41.52962,-28.23978,-33.69283,1001.437
0.846516609,0.0554412,-0.00196746,-0.173977,-0.4685748,0.1011084,0.8547548,41.52962,-28.23978,-33.69283,1001.437
0.849013805,0.1173859,0.2362704,-0.0515219,-0.4656365,0.1012939,0.8638274,41.52962,-28.23978,-33.69283,1001.437
0.851511002,-0.3163856,0.1766368,-0.1127059,-0.4665416,0.09680853,0.856695,41.52962,-28.23978,-33.69283,1001.437
0.854007721,-0.1923621,0.2361406,-0.2350709,-0.4645445,0.09443051,0.8571885,41.52962,-28.23978,-33.69283,1001.437
0.856504917,-0.1303395,0.2360665,-0.1125967,-0.4646322,0.09927058,0.8561987,41.52962,-28.23978,-33.69283,1001.437
0.859001636,-0.0683365,-0.002244912,-0.05136108,-0.4650182,0.09341074,0.8543301,41.52962,-28.23978,-33.69283,1001.437
0.861498833,0.1175712,0.1168744,-0.1125451,-0.469074,0.101551,0.8523636,41.52962,-28.23978,-33.69283,1001.437
0.863996506,-0.006389879,0.176397,-0.2961104,-0.4724748,0.1005069,0.8523731,41.52962,-28.23978,-33.69283,1001.437
0.866493225,-0.006387874,0.1763416,-0.1124168,-0.4665759,0.09875616,0.8571588,41.52962,-28.23978,-33.69283,1001.437
0.868990421,-0.00638587,0.05716756,-0.05118125,-0.4665452,0.09675699,0.852874,41.52962,-28.23978,-33.69283,1001.436
0.871487617,-0.1922701,-0.061969,-0.1123654,-0.4705171,0.1006133,0.8571479,41.52962,-28.23978,-33.69283,1001.436
0.873984337,-0.006323464,0.1762877,-0.1123301,-0.4646707,0.1017679,0.8614352,41.52962,-28.23978,-33.69283,1001.436
0.876481533,-0.1302457,-0.002445616,-0.05109458,-0.4616655,0.09742463,0.8585984,41.52962,-28.23978,-33.69283,1001.436
0.878978729,-0.316091,0.1166738,-0.05107852,-0.4626469,0.09733275,0.8533453,41.897,-28.23914,-34.07627,1001.436
0.881476402,-0.1920675,-0.06204081,-0.05106248,-0.4675327,0.09718905,0.8504832,41.897,-28.23914,-34.07627,1001.436
0.883973122,-0.1300451,0.05709729,-0.1122466,-0.4656225,0.09966399,0.8509421,41.897,-28.23914,-34.07627,1001.436
0.886470318,-0.1300042,0.05707934,-0.1734116,-0.4660985,0.09921975,0.8547668,41.897,-28.23914,-34.07627,1001.436
0.888967514,-0.1299634,0.17618,-0.1733571,-0.4675902,0.1012454,0.8633513,41.897,-28.23914,-34.07627,1001.436
0.891464233,-0.06796048,-0.002553239,-0.1121024,-0.4680551,0.09974034,0.8604963,41.897,-28.23914,-34.07627,1001.436
0.893961430,0.1179471,0.05700687,-0.05086701,-0.4641812,0.1017978,0.8628677,41.897,-28.23914,-34.07627,1001.436
0.896458626,-0.06797618,0.2356669,0.01034917,-0.4660507,0.0968577,0.8595604,41.897,-28.23914,-34.07627,1001.436
0.898955345,-0.3158032,0.1760335,-0.05085428,-0.4684406,0.09388695,0.8591053,41.897,-28.23914,-34.07627,1001.436
0.901452541,-0.005893521,-0.1218183,-0.1120385,-0.4698358,0.08936534,0.8500628,41.897,-28.23914,-34.07627,1001.436
0.903950214,0.3658809,-0.002661414,0.07159729,-0.4675471,0.09759058,0.8442707,41.897,-28.23914,-34.07627,1001.436
0.906446934,0.5516522,0.1760173,0.0103746,-0.4691504,0.1059444,0.854243,41.897,-28.23914,-34.07627,1001.436
0.908944130,0.613441,0.05684342,0.01037134,-0.4618202,0.1067935,0.8695179,41.897,-28.23914,-34.07627,1001.438
0.911441326,0.05558945,-0.002733737,-0.1120323,-0.4604414,0.1110767,0.8608886,41.897,-28.23914,-34.07627,1001.438
0.913938045,-0.5020868,-0.06229218,-0.1119971,-0.4612675,0.1022366,0.8547425,41.897,-28.23914,-34.07627,1001.438
0.916435242,-0.5638912,-0.06227261,-0.1119619,-0.458282,0.09943935,0.858582,41.897,-28.23914,-34.07627,1001.438
0.918932438,-0.1299794,0.2951028,-0.2955274,-0.4659928,0.09402968,0.8657901,41.897,-28.23914,-34.07627,1001.438
0.921429157,0.3657582,0.6523659,-0.1118339,-0.484034,0.09157742,0.8567426,41.897,-28.23914,-34.07627,1001.438
0.923926353,0.179757,-0.002991393,0.07180181,-0.4812935,0.1017286,0.8490259,41.897,-28.23914,-34.07627,1001.438
0.926424026,-0.06814785,-0.2412277,0.07177925,-0.4642234,0.1036294,0.8547343,41.897,-28.23914,-34.07627,1001.438
0.928920746,0.05579775,0.05664463,-0.2954445,-0.465207,0.1041195,0.8566421,41.52948,-28.24706,-34.07551,1001.438
0.931417942,0.05578022,0.2353047,-0.1117511,-0.4782631,0.09713838,0.8638645,41.52948,-28.24706,-34.07551,1001.438
0.933915138,-0.06816149,-0.122125,0.01068443,-0.4733466,0.09528291,0.8624418,41.52948,-28.24706,-34.07551,1001.438
0.936411858,0.1177462,-0.3007645,0.07188127,-0.4583054,0.1009339,0.8614374,41.52948,-28.24706,-34.07551,1001.438
0.938909054,-0.1301391,-0.06243283,0.01065849,-0.4606962,0.09795026,0.8600271,41.52948,-28.24706,-34.07551,1001.438
0.941406250,-0.06813619,-0.06241322,0.01065514,-0.470019,0.09954368,0.8490348,41.52948,-28.24706,-34.07551,1001.438
0.943903923,0.3036578,-0.1219529,-0.05054841,-0.4671085,0.1011593,0.8561866,41.52948,-28.24706,-34.07551,1001.438
0.946400166,0.3035624,-0.06235529,-0.1117327,-0.4681154,0.1031439,0.8609497,41.52948,-28.24706,-34.07551,1001.438
0.948897839,-0.06830554,-0.121895,0.01070278,-0.4676848,0.1065966,0.8642684,41.52948,-28.24706,-34.07551,1001.441
0.951395035,-0.3161324,-0.1218567,-0.111701,-0.4660355,0.09585489,0.8571792,41.52948,-28.24706,-34.07551,1001.441
0.953891754,-0.192109,-0.06225913,-0.2952665,-0.4670618,0.09817015,0.850476,41.52948,-28.24706,-34.07551,1001.441
0.956388950,-0.1300865,0.05687903,-0.1115731,-0.4665942,0.09971386,0.8561966,41.52948,-28.24706,-34.07551,1001.441
0.958886147,-0.006121464,0.05686116,-0.1115381,-0.4665608,0.09775335,0.8547776,41.52948,-28.24706,-34.07551,1001.441
0.961382866,0.1178046,-0.06227531,0.01089736,-0.4670569,0.09824103,0.8557298,41.52948,-28.24706,-34.07551,1001.441
0.963880062,0.05580554,-0.1813743,0.01089394,-0.4700288,0.1006238,0.8571475,41.52948,-28.24706,-34.07551,1001.441
0.966377735,-0.06813617,-0.002639458,-0.05030969,-0.4636378,0.09832744,0.8566825,41.52948,-28.24706,-34.07551,1001.441
0.968874454,-0.006152675,0.11648,0.01090632,-0.4656403,0.1006281,0.8504576,41.52948,-28.24706,-34.07551,1001.441
0.971371651,0.1797355,0.1760027,0.0721031,-0.4661193,0.1007529,0.8604879,41.52948,-28.24706,-34.07551,1001.441
0.973868847,-0.0681693,-0.002730511,-0.1727204,-0.465555,0.09636357,0.8581306,41.52948,-28.24706,-34.07551,1001.441
0.976366997,-0.13011,0.05682965,-0.1114659,-0.4631673,0.09930209,0.8561975,41.52948,-28.24706,-34.07551,1001.441
0.978862762,-0.06810702,0.1759304,-0.1114309,-0.4690202,0.09866498,0.8542949,41.1621,-28.2477,-33.69206,1001.441
0.981359959,0.1178007,0.1758751,0.01100453,-0.4680331,0.09822646,0.8562081,41.1621,-28.2477,-33.69206,1001.441
0.983856678,0.2416878,-0.06241733,-0.1113993,-0.4646097,0.09776314,0.8523881,41.1621,-28.2477,-33.69206,1001.441
0.986353874,0.1176877,-0.06239772,0.01103607,-0.462633,0.09692477,0.8590802,41.1621,-28.2477,-33.69206,1001.441
0.988851547,0.2415749,-0.002818815,0.07223281,-0.4685677,0.1012115,0.8623967,41.1621,-28.2477,-33.69206,1001.443
0.991348267,0.1175749,0.05674137,0.1334103,-0.4671156,0.1010562,0.8485447,41.1621,-28.2477,-33.69206,1001.443
0.993845463,0.1795,0.1758421,0.1333684,-0.4670417,0.09723821,0.8533486,41.1621,-28.2477,-33.69206,1001.443
0.996342659,0.3033678,0.1757869,0.0721263,-0.4655955,0.09822099,0.8519077,41.1621,-28.2477,-33.69206,1001.443
0.998839378,0.05542412,-0.06250553,0.07210364,-0.4578894,0.104174,0.8489947,41.1621,-28.2477,-33.69206,1001.443
1.001341343,-0.006555378,0.05663271,0.07208098,-0.453877,0.09968209,0.869564,41.1621,-28.2477,-33.69206,1001.443
1.003833771,-0.006553322,0.8308859,0.07205834,-0.4712712,0.08915137,0.8725154,41.1621,-28.2477,-33.69206,1001.443
1.006331444,0.179335,0.6519469,0.07203571,-0.4874928,0.09274715,0.8409734,41.1621,-28.2477,-33.69206,1001.443
1.008827686,-0.006607607,-0.1820881,0.07201307,-0.4748905,0.09838429,0.8428364,41.1621,-28.2477,-33.69206,1001.443
1.011325359,0.1792807,-0.1224716,0.1331906,-0.4603724,0.1071879,0.8604386,41.1621,-28.2477,-33.69206,1001.443
1.013822556,0.4270728,0.2349226,0.2555492,-0.4656031,0.09933334,0.8624084,41.1621,-28.2477,-33.69206,1001.443
1.016319275,0.3649765,0.2348489,0.2554689,-0.4753317,0.09661301,0.8562239,41.1621,-28.2477,-33.69206,1001.443
1.018816471,0.1789756,-0.003462136,0.1941885,-0.4666467,0.1026192,0.8556983,41.1621,-28.2477,-33.69206,1001.443
1.021313667,0.1169573,-0.1821389,0.01052686,-0.4484766,0.09777267,0.8633648,41.1621,-28.2477,-33.69206,1001.443
1.023810387,0.3647689,0.1752741,-0.05067665,-0.449991,0.1006916,0.8662109,41.1621,-28.2477,-33.69206,1001.443
1.026307583,0.6744648,0.6516934,0.07173967,-0.4759705,0.1054216,0.862371,41.1621,-28.2477,-33.69206,1001.443
1.028805256,0.3644424,0.5323701,0.2553177,-0.4890382,0.09827298,0.8571754,41.52962,-28.23978,-33.69283,1001.443
1.031301975,-0.255293,-0.00383088,0.3164377,-0.4797035,0.09501749,0.8528942,41.52962,-28.23978,-33.69283,1001.443
1.033799171,-0.2552128,-0.4207448,0.3163383,-0.4673655,0.08800063,0.852937,41.52962,-28.23978,-33.69283,1001.443
1.036296368,0.1166399,0.05586181,0.3162389,-0.4616149,0.09387936,0.8476374,41.52962,-28.23978,-33.69283,1001.443
1.038793087,0.8601484,0.3536408,0.2549394,-0.4625697,0.09295219,0.8524212,41.52962,-28.23978,-33.69283,1001.443
1.041290283,1.107726,0.2939703,0.2548593,-0.4646514,0.1002154,0.8542813,41.52962,-28.23978,-33.69283,1001.443
1.043787479,0.6736439,-0.003918491,0.07117862,-0.4575089,0.1111784,0.8637521,41.52962,-28.23978,-33.69283,1001.443
1.046284199,0.1777355,0.2343199,-0.05124414,-0.4574753,0.109832,0.871882,41.52962,-28.23978,-33.69283,1001.443
1.048781395,-0.1321308,0.1151277,0.009972162,-0.4764063,0.1025058,0.8628698,41.52962,-28.23978,-33.69283,1001.443
1.051279068,-0.1940514,0.1746509,0.1323694,-0.4885414,0.09718402,0.8476296,41.52962,-28.23978,-33.69283,1001.443
1.053775787,-0.3179146,-0.06364121,0.2547283,-0.4761658,0.08765692,0.8414807,41.52962,-28.23978,-33.69283,1001.443
1.056272984,0.1159199,-0.3018584,0.3158484,-0.4635038,0.09049182,0.851484,41.52962,-28.23978,-33.69283,1001.443
1.058770180,0.7355044,-0.1230857,0.254549,-0.456765,0.09655908,0.8586017,41.52962,-28.23978,-33.69283,1001.443
1.061266899,0.7972355,0.1151902,0.3156692,-0.458791,0.1009621,0.8643034,41.52962,-28.23978,-33.69283,1001.443
1.063764095,0.4871745,0.115154,0.2543699,-0.4584734,0.1101094,0.8580284,41.52962,-28.23978,-33.69283,1001.443
1.066261292,0.5489836,-0.1826787,0.07068934,-0.4575826,0.1156105,0.8684972,41.52962,-28.23978,-33.69283,1001.443
1.068758965,0.3629248,0.1747345,-0.05173327,-0.472614,0.1088793,0.8613891,41.52962,-28.23978,-33.69283,1001.445
1.071255207,-0.3807343,0.2342389,0.07068338,-0.4861357,0.09977257,0.8557301,41.52962,-28.23978,-33.69283,1001.445
1.073752880,-0.9382734,-0.06363118,0.1930616,-0.4767291,0.09205919,0.8447933,41.52962,-28.23978,-33.69283,1001.445
1.076250076,-0.442282,-0.3614077,0.1318007,-0.4678349,0.08643114,0.8453059,41.52962,-28.23978,-33.69283,1001.445
1.078746796,0.4253262,0.05562095,0.1317593,-0.4615684,0.09149797,0.850998,41.52962,-28.23978,-33.69283,1001.445
1.081243992,1.044814,0.2938407,0.3153185,-0.4578382,0.1012493,0.8480603,41.52962,-28.23978,-33.69283,1001.445
1.083741188,1.106447,0.2341891,0.1928191,-0.4555948,0.1130971,0.8589607,41.52962,-28.23978,-33.69283,1001.445
1.086237907,0.6104031,0.2936748,0.1927585,-0.4634651,0.1175996,0.8813834,41.52962,-28.23978,-33.69283,1001.445
1.088735104,-0.1952959,0.2340232,0.2538981,-0.482867,0.1092922,0.8723785,41.52962,-28.23978,-33.69283,1001.445
1.091232777,-1.124666,-0.1234061,0.3762188,-0.4855724,0.09537029,0.8524175,41.52962,-28.23978,-33.69283,1001.445
1.093729019,-1.124313,-0.1829266,0.2537002,-0.4619066,0.08266193,0.8443739,41.52962,-28.23978,-33.69283,1001.445
1.096226692,-0.07060383,-0.06375055,0.1924203,-0.4545198,0.07944173,0.8458256,41.52962,-28.23978,-33.69283,1001.445
1.098723888,0.8588498,0.05538808,0.3147602,-0.445583,0.09914339,0.852367,41.52962,-28.23978,-33.69283,1001.445
1.101220608,1.664087,0.8296416,0.2534612,-0.4624925,0.1175626,0.8770841,41.52962,-28.23978,-33.69283,1001.445
1.103717804,1.167868,1.067618,0.3757819,-0.4874684,0.1208706,0.8742092,41.52962,-28.23978,-33.69283,1001.445
1.106215000,-0.691362,0.2930118,0.2532635,-0.4877694,0.1095179,0.8609158,41.52962,-28.23978,-33.69283,1001.445
1.108711720,-1.992349,-0.4813511,0.1307835,-0.464046,0.09336732,0.8495531,41.52962,-28.23978,-33.69283,1001.446
1.111208916,-1.248178,-0.4216406,0.1307424,-0.4520555,0.0773791,0.8329419,41.52962,-28.23978,-33.69283,1001.446
1.113706589,0.7969635,0.1740849,0.1919015,-0.4517425,0.08768393,0.8405108,41.52962,-28.23978,-33.69283,1001.446
1.116203308,2.097917,1.126979,0.2530414,-0.4602907,0.1028717,0.8642907,41.52962,-28.23978,-33.69283,1001.446
1.118700504,1.353713,1.007506,0.3141622,-0.477044,0.1119414,0.8795211,41.52962,-28.23978,-33.69283,1001.446
1.121197701,-0.5675374,0.4115968,0.3752637,-0.4804355,0.1098107,0.8709403,41.52962,-28.23978,-33.69283,1001.446
1.123694420,-1.806601,-0.3628034,0.1915452,-0.4630854,0.09437825,0.8509784,41.52962,-28.23978,-33.69283,1001.446
1.126191616,-1.310337,-0.4222487,0.1302848,-0.4497988,0.08819836,0.8395507,41.52962,-28.23978,-33.69283,1001.446
1.128688812,0.7348241,0.5903921,0.3750447,-0.4611435,0.0948669,0.8481077,41.89068,-27.87025,-34.0827,1001.446
1.131186485,1.725987,0.9475624,0.3137266,-0.4814066,0.1086452,0.8580523,41.89068,-27.87025,-34.0827,1001.446
1.133682728,0.734051,0.5303496,0.3136281,-0.479437,0.1089256,0.8757227,41.89068,-27.87025,-34.0827,1001.446
1.136180401,-0.7532698,-0.06541003,0.2523293,-0.4612716,0.1034005,0.8690642,41.89068,-27.87025,-34.0827,1001.446
1.138677597,-1.372654,-0.1845081,0.1298497,-0.4518149,0.09335725,0.8653089,41.89068,-27.87025,-34.0827,1001.446
1.141174316,-0.3188673,0.3515836,0.2522093,-0.4639242,0.08596544,0.8405302,41.89068,-27.87025,-34.0827,1001.446
1.143671513,0.9824368,0.530151,0.3745304,-0.4749795,0.103205,0.8404137,41.89068,-27.87025,-34.0827,1001.446
1.146168709,1.04409,0.4108659,0.435613,-0.4682918,0.1128111,0.8580148,41.89068,-27.87025,-34.0827,1001.446
1.148665428,0.238255,0.2916182,0.3130757,-0.4577967,0.1012408,0.8834075,41.89068,-27.87025,-34.0827,1001.446
1.151162624,-0.2575166,0.6488824,0.2517772,-0.4757368,0.09291987,0.871058,41.89068,-27.87025,-34.0827,1001.444
1.153660297,-0.1335115,0.1722041,0.3128983,-0.4832129,0.09973249,0.8480859,41.89068,-27.87025,-34.0827,1001.444
1.156156540,-0.1334695,-0.2447651,0.3128,-0.4704761,0.09754045,0.8452282,41.89068,-27.87025,-34.0827,1001.444
1.158654213,-0.1334276,-0.1851289,0.1903013,-0.4553893,0.1007972,0.846629,41.89068,-27.87025,-34.0827,1001.444
1.161151409,-0.1333857,0.2318444,0.1902415,-0.4484219,0.09489956,0.8662513,41.89068,-27.87025,-34.0827,1001.444
1.163648129,0.3003909,0.7678053,0.3737824,-0.4677869,0.08468325,0.8596483,41.89068,-27.87025,-34.0827,1001.444
1.166145325,0.9199174,0.4697675,0.4348651,-0.4860483,0.09370416,0.837622,41.89068,-27.87025,-34.0827,1001.444
1.168642521,0.7337422,-0.1855323,0.4959287,-0.4762055,0.117904,0.8522512,41.89068,-27.87025,-34.0827,1001.444
1.171139240,-0.1339576,-0.4237112,0.3733725,-0.4555688,0.1116412,0.8589711,41.89068,-27.87025,-34.0827,1001.444
1.173636437,-0.7535365,-0.006663039,0.1896546,-0.454315,0.09673403,0.8676746,41.89068,-27.87025,-34.0827,1001.444
1.176137924,-0.009754658,0.4102542,0.3119954,-0.4727708,0.08983916,0.8538824,41.89068,-27.87025,-34.0827,1001.444
1.178630352,0.9816419,0.2910067,0.4342978,-0.48315,0.09636763,0.8504983,41.5358,-28.61595,-34.06908,1001.444
1.181128025,0.7334851,-0.1855592,0.4341614,-0.4663808,0.1146848,0.8498801,41.5358,-28.61595,-34.06908,1001.444
1.183625221,-0.1342146,-0.3641788,0.1892242,-0.4519576,0.1016782,0.870504,41.5358,-28.61595,-34.06908,1001.444
1.186121941,-0.5059449,0.05285075,0.1279645,-0.4613923,0.08243842,0.8630042,41.5358,-28.61595,-34.06908,1001.444
1.188619137,0.4856074,0.4101899,0.2503247,-0.4830785,0.0919033,0.8433651,41.5358,-28.61595,-34.06908,1001.444
1.191116333,0.9811516,0.2313832,0.4950469,-0.4823007,0.103099,0.8442401,41.5358,-28.61595,-34.06908,1001.445
1.193614006,0.5471087,-0.006926708,0.372491,-0.4647911,0.1079673,0.8532707,41.5358,-28.61595,-34.06908,1001.445
1.196110249,-0.1966082,-0.2451617,0.2499736,-0.4548779,0.1011427,0.8714648,41.5358,-28.61595,-34.06908,1001.445
1.198607922,0.2371882,0.3505083,0.1886948,-0.469895,0.0933959,0.8610203,41.5358,-28.61595,-34.06908,1001.445
1.201105118,0.9186966,0.4099575,0.3110359,-0.480284,0.09978263,0.8471286,41.5358,-28.61595,-34.06908,1001.445
1.203601837,0.7944839,-0.1857643,0.1273376,-0.4639018,0.1128348,0.8527578,41.5358,-28.61595,-34.06908,1001.445
1.206099033,0.3604996,-0.3643839,0.1884978,-0.4520729,0.1073406,0.858522,41.5358,-28.61595,-34.06908,1001.445
1.208596230,-0.1972725,0.05264572,0.1884386,-0.4605713,0.09181538,0.8729677,41.5358,-28.61595,-34.06908,1001.445
1.211092949,0.4224104,0.409985,0.1271792,-0.4835853,0.09345824,0.8514746,41.5358,-28.61595,-34.06908,1001.445
1.213590145,1.103861,0.1120597,0.3107398,-0.494613,0.1086536,0.84373,41.5358,-28.61595,-34.06908,1001.445
1.216087818,0.6697793,-0.2453313,0.1882418,-0.4697446,0.1117317,0.8522914,41.5358,-28.61595,-34.06908,1001.445
1.218584061,-0.2598625,-0.5430508,0.2493829,-0.4519601,0.1010318,0.8585669,41.5358,-28.61595,-34.06908,1001.445
1.221081734,-0.321743,-0.06640576,0.1881043,-0.4533558,0.09772562,0.867667,41.5358,-28.61595,-34.06908,1001.445
1.223578930,0.5458274,0.3505302,0.1880452,-0.4640146,0.09198875,0.8552949,41.5358,-28.61595,-34.06908,1001.445
1.226075649,1.165277,0.529098,0.2491864,-0.4764833,0.1062786,0.8547226,41.5358,-28.61595,-34.06908,1001.445
1.228572846,0.8551003,-0.06666124,0.3103083,-0.4780468,0.1115403,0.8513423,42.26453,-28.23121,-34.07704,1001.445
1.231070042,-0.07459971,-0.5431147,0.1878104,-0.4632435,0.1043097,0.8676258,42.26453,-28.23121,-34.07704,1001.447
1.233566761,-0.6941971,-0.06646967,0.06535099,-0.4561681,0.09081046,0.8634191,42.26453,-28.23121,-34.07704,1001.447
1.236063957,-0.01239609,0.2313477,0.1265307,-0.4693111,0.08684626,0.8424378,42.26453,-28.23121,-34.07704,1001.447
1.238561630,0.9790013,-0.006962169,0.2488913,-0.4719758,0.09945013,0.8452154,42.26453,-28.23121,-34.07704,1001.447
1.241057873,1.16458,-0.006959982,0.3100133,-0.464332,0.1093886,0.8499166,42.26453,-28.23121,-34.07704,1001.447
1.243555546,0.420669,-0.006957795,0.3099159,-0.4637523,0.1052247,0.8642759,42.26453,-28.23121,-34.07704,1001.447
1.246052742,-0.2610461,-0.006955609,0.126218,-0.4621118,0.0961902,0.8758034,42.26453,-28.23121,-34.07704,1001.447
1.248549461,-0.199002,-0.006953422,0.1873785,-0.4717607,0.08789966,0.8524626,42.26453,-28.23121,-34.07704,1001.447
1.251046658,0.8544161,-0.006951239,0.1873197,-0.4723579,0.0930341,0.8380964,42.26453,-28.23121,-34.07704,1001.447
1.253543854,1.349844,-0.2451863,0.0648604,-0.466843,0.1132184,0.8498908,42.26453,-28.23121,-34.07704,1001.447
1.256041527,0.7297994,-0.1855499,0.003639817,-0.4629402,0.1144728,0.8646871,42.26453,-28.23121,-34.07704,1001.447
1.258537769,-0.1998613,-0.06637304,0.2484395,-0.4705336,0.1015968,0.8580961,42.26453,-28.23121,-34.07704,1001.447
1.261035442,-0.3856848,-0.1854708,0.2483614,-0.4698612,0.09144183,0.8600789,42.26453,-28.23121,-34.07704,1001.447
1.263532639,-0.07575314,-0.06629392,0.0646828,-0.4683114,0.08598044,0.848653,42.26453,-28.23121,-34.07704,1001.447
1.266029358,0.6678158,-0.006713789,0.1870629,-0.4671078,0.100558,0.8475929,42.26453,-28.23121,-34.07704,1001.447
1.268526554,1.287227,0.1124069,0.06460371,-0.4629374,0.1132896,0.8489326,42.26453,-28.23121,-34.07704,1001.447
1.271023750,0.7291636,0.2314902,0.1869838,-0.4710843,0.1055718,0.8657107,42.26453,-28.23121,-34.07704,1001.45
1.273520470,-0.2004968,0.05273958,0.1257249,-0.4807877,0.1013827,0.8585814,42.26453,-28.23121,-34.07704,1001.45
1.276017666,-0.3863201,-0.1259549,0.06448518,-0.4703853,0.09274547,0.8495613,42.26453,-28.23121,-34.07704,1001.45
1.278515339,-0.2622746,-0.6023897,0.3092657,-0.4532918,0.09315177,0.8524143,41.90347,-28.60074,-33.68716,1001.45
1.281011581,0.6672392,-0.1257261,0.1867682,-0.4519305,0.09962745,0.8623983,41.90347,-28.60074,-33.68716,1001.45
1.283509255,1.534499,0.4699064,0.1867095,-0.4745396,0.106793,0.8537625,41.90347,-28.60074,-33.68716,1001.45
1.286006451,1.348131,0.4697588,0.1866508,-0.4835033,0.1163035,0.8532222,41.90347,-28.60074,-33.68716,1001.45
1.288503170,-0.01545901,-0.2451004,0.2477924,-0.4741322,0.1123544,0.8694855,41.90347,-28.60074,-33.68716,1001.45
1.291000366,-1.130772,-0.5428199,0.1253141,-0.4616668,0.09740531,0.8571655,41.90347,-28.60074,-33.68716,1001.45
1.293497562,-0.9445302,-0.5426493,0.2476752,-0.4605272,0.08756573,0.8457711,41.90347,-28.60074,-33.68716,1001.45
1.295994282,0.2950083,-0.3042417,0.06399676,-0.4576521,0.09050188,0.8428825,41.90347,-28.60074,-33.68716,1001.45
1.298491478,1.348271,0.05320971,-0.05842374,-0.4564169,0.104315,0.8571131,41.90347,-28.60074,-33.68716,1001.45
1.300989151,1.471772,0.2914302,-0.05840539,-0.4682373,0.1105457,0.8699726,41.90347,-28.60074,-33.68716,1001.45
1.303485394,0.541878,-0.006457862,0.1864138,-0.478534,0.1121568,0.8618468,41.90347,-28.60074,-33.68716,1001.45
1.305983067,-0.7594961,-0.3042524,0.0639548,-0.4789295,0.1067694,0.8590196,41.90347,-28.60074,-33.68716,1001.45
1.308480263,-1.069068,-0.3041568,0.002734506,-0.4664129,0.08889559,0.8457651,41.90347,-28.60074,-33.68716,1001.45
1.310977459,-0.4491112,-0.06582399,-0.1196668,-0.4629961,0.08894978,0.8443297,41.90347,-28.60074,-33.68716,1001.446
1.313474178,0.6663476,0.1128746,0.1251716,-0.4577022,0.0940536,0.8543212,41.90347,-28.60074,-33.68716,1001.446
1.315971375,1.285759,0.1723984,0.06393212,-0.4627618,0.1042235,0.8604612,41.90347,-28.60074,-33.68716,1001.446
1.318469048,0.7896585,-0.006333627,0.002711832,-0.4604231,0.110119,0.8618507,41.90347,-28.60074,-33.68716,1001.446
1.320965290,0.1078274,-0.06589094,0.00271098,-0.4614939,0.1154556,0.8632463,41.90347,-28.60074,-33.68716,1001.446
1.323462963,-0.5118273,0.2319263,-0.05849008,-0.4720224,0.1030534,0.860475,41.90347,-28.60074,-33.68716,1001.446
1.325962067,-1.007363,-0.0659431,-0.1196719,-0.4762903,0.09502015,0.8476378,41.90347,-28.60074,-33.68716,1001.446
1.328456879,-0.5733122,-0.3637189,-0.0584341,-0.4698164,0.0878128,0.8429089,41.90347,-28.60074,-33.68716,1001.446
1.330954075,0.2943371,-0.4231639,0.06398465,-0.4600444,0.08810664,0.8491106,41.90347,-28.60074,-33.68716,1001.446
1.333451271,0.9138656,0.1130027,-0.1196361,-0.4636846,0.1013165,0.8623931,41.90347,-28.60074,-33.68716,1001.446
1.335947990,0.9135785,0.1129672,-0.05839826,-0.4662938,0.110446,0.8594636,41.90347,-28.60074,-33.68716,1001.446
1.338445187,0.5415189,-0.006186865,-0.1195801,-0.4649217,0.1158544,0.8622901,41.90347,-28.60074,-33.68716,1001.446
1.340942860,-0.07827213,-0.1848628,0.002857855,-0.4600173,0.1150469,0.866592,41.90347,-28.60074,-33.68716,1001.446
1.343439102,-0.8217926,-0.006126843,0.1252574,-0.4672021,0.1071375,0.867608,41.90347,-28.60074,-33.68716,1001.446
1.345936775,-1.317231,-0.1252435,0.125218,-0.4685254,0.09815797,0.8519099,41.90347,-28.60074,-33.68716,1001.446
1.348433971,-0.8830827,-0.1847635,-0.1196221,-0.4585446,0.08681113,0.8586723,41.90347,-28.60074,-33.68716,1001.446
1.350930691,0.1705502,0.4108876,-0.1195846,-0.4614221,0.08445048,0.8682442,41.90347,-28.60074,-33.68716,1001.45
1.353427887,0.8520797,0.4107585,0.06405362,-0.4811352,0.09241129,0.8419273,41.90347,-28.60074,-33.68716,1001.45
1.355925083,1.037698,0.05327365,0.06403349,-0.4717861,0.1165233,0.8508254,41.90347,-28.60074,-33.68716,1001.45
1.358421803,0.7275618,0.05325691,-0.05838703,-0.4607148,0.1266706,0.8655541,41.90347,-28.60074,-33.68716,1001.45
1.360918999,-0.5119085,0.1127995,0.1252319,-0.4712243,0.1139314,0.8737715,41.90347,-28.60074,-33.68716,1001.45
1.363416672,-1.627065,0.05320475,0.1863928,-0.476262,0.09359647,0.8500363,41.90347,-28.60074,-33.68716,1001.45
1.365913868,-1.316744,-0.3637271,-0.1196668,-0.4584555,0.08076849,0.8424748,41.90347,-28.60074,-33.68716,1001.45
1.370907784,1.347967,0.7680721,0.002808797,-0.4709999,0.1000724,0.8538084,41.90347,-28.60074,-33.68716,1001.45
1.370907784,1.347967,0.7680721,0.002808797,-0.4709999,0.1000724,0.8538084,41.90347,-28.60074,-33.68716,1001.45
1.373404980,0.8518465,0.82739,0.1252083,-0.4798701,0.1048265,0.860467,41.90347,-28.60074,-33.68716,1001.45
1.375905514,-0.2017767,0.1719778,0.125169,-0.4764359,0.1039101,0.8590385,41.90347,-28.60074,-33.68716,1001.45
1.378398895,-0.2017133,-0.4236692,0.1863299,-0.4588273,0.1022698,0.8533078,41.52962,-28.23978,-33.69283,1001.45
1.380896568,-0.2016499,-0.1257397,0.06387092,-0.4554623,0.1058499,0.8614006,41.52962,-28.23978,-33.69283,1001.45
1.383392811,-0.1396245,0.3507743,0.1862513,-0.4729382,0.0996353,0.8604999,41.52962,-28.23978,-33.69283,1001.45
1.385890484,0.1082677,0.1719861,0.06379234,-0.4777173,0.09309253,0.8509961,41.52962,-28.23978,-33.69283,1001.45
1.388387680,0.2321579,-0.1854237,0.0637723,-0.4598578,0.1051347,0.8513774,41.52962,-28.23978,-33.69283,1001.45
1.390884400,0.04619868,-0.2449247,0.06375226,-0.4496213,0.1069272,0.8599565,41.52962,-28.23978,-33.69283,1001.451
1.393381596,-0.4495125,0.2316266,-0.1198684,-0.4577975,0.100006,0.863832,41.52962,-28.23978,-33.69283,1001.451
1.395878792,-0.1395609,0.5889097,0.002569695,-0.4821204,0.09348974,0.8514735,41.52962,-28.23978,-33.69283,1001.451
1.398375511,0.3561797,-0.006868362,0.1861695,-0.478278,0.09631159,0.8385542,41.52962,-28.23978,-33.69283,1001.451
1.400872707,0.3560678,-0.2451034,0.1249108,-0.4550724,0.1105458,0.8489476,41.52962,-28.23978,-33.69283,1001.451
1.403370380,0.1081076,-0.006789204,-0.05872905,-0.4491451,0.1092075,0.8843008,41.52962,-28.23978,-33.69283,1001.451
1.408364296,-0.2016345,0.3504025,0.002508053,-0.4831493,0.09576636,0.8419046,41.52962,-28.23978,-33.69283,1001.451
1.408364296,-0.2016345,0.3504025,0.002508053,-0.4831493,0.09576636,0.8419046,41.52962,-28.23978,-33.69283,1001.451
1.413358212,-0.01571893,-0.304708,0.06370668,-0.4500946,0.1071358,0.8761958,41.52962,-28.23978,-33.69283,1001.451
1.413358212,-0.01571893,-0.304708,0.06370668,-0.4500946,0.1071358,0.8761958,41.52962,-28.23978,-33.69283,1001.451
1.415855408,-0.1396382,0.6483365,0.06368666,-0.4699124,0.09436651,0.8610134,41.52962,-28.23978,-33.69283,1001.451
1.420849323,0.04635529,-0.245348,0.002427228,-0.4573045,0.09947325,0.8595366,41.52962,-28.23978,-33.69283,1001.451
1.423346520,0.3561512,0.1716442,0.1248269,-0.4714009,0.09521539,0.8543209,41.52962,-28.23978,-33.69283,1001.451
1.425844193,0.2940772,-0.1262063,0.1859879,-0.474481,0.1033637,0.8513986,41.52962,-28.23978,-33.69283,1001.451
1.425844193,0.2940772,-0.1262063,0.1859879,-0.474481,0.1033637,0.8513986,41.52962,-28.23978,-33.69283,1001.451
1.430838108,0.2940482,0.2311727,0.06352829,-0.462633,0.09692477,0.8590802,42.64467,-28.96227,-34.12873,1001.448
1.433335304,0.2319937,0.1119815,0.1247085,-0.4676198,0.1026497,0.85952,42.64467,-28.96227,-34.12873,1001.448
1.435832501,0.2319208,-0.007172316,0.06346915,-0.4617839,0.1042639,0.8618933,42.64467,-28.96227,-34.12873,1001.448
1.435832501,0.2319208,-0.007172316,0.06346915,-0.4617839,0.1042639,0.8618933,42.64467,-28.96227,-34.12873,1001.448
1.440826416,0.04592779,0.3501693,0.2470299,-0.4695456,0.1011712,0.8609646,42.64467,-28.96227,-34.12873,1001.448
1.443323612,-0.01604873,0.3500593,0.1857521,-0.4670994,0.1006804,0.8566677,42.64467,-28.96227,-34.12873,1001.448
1.445820332,0.04591841,0.2308307,0.06329332,-0.4680322,0.09823935,0.8571633,42.64467,-28.96227,-34.12873,1001.448
1.448318005,0.04590398,0.1711989,0.1244736,-0.4685878,0.1021434,0.8595241,42.64467,-28.96227,-34.12873,1001.448
1.448318005,0.04590398,0.1711989,0.1244736,-0.4685878,0.1021434,0.8595241,42.64467,-28.96227,-34.12873,1001.448
1.453311920,0.2317419,0.4687943,0.1855572,-0.4650277,0.09388315,0.8533713,42.64467,-28.96227,-34.12873,1001.448
1.455809116,0.2936312,0.4090877,0.3078993,-0.4763174,0.09707086,0.8557435,42.64467,-28.96227,-34.12873,1001.448
1.458306313,0.5413873,0.4685185,0.430203,-0.4695176,0.09913333,0.8538142,42.64467,-28.96227,-34.12873,1001.448
1.460803032,0.6651415,0.4683713,0.5524682,-0.4661259,0.1006563,0.8533236,42.64467,-28.96227,-34.12873,1001.448
1.463300228,0.9127809,0.5277835,0.5522947,-0.4690574,0.1011817,0.8609642,42.64467,-28.96227,-34.12873,1001.448
1.465798855,0.9124941,0.6467363,0.6133214,-0.4694397,0.09537338,0.8629166,42.64467,-28.96227,-34.12873,1001.448
1.468294144,0.7263212,0.4082958,0.5519285,-0.4690807,0.1026762,0.8638195,42.64467,-28.96227,-34.12873,1001.448
1.470791817,0.7880551,0.7059641,0.4905549,-0.4738547,0.09559662,0.8504983,42.64467,-28.96227,-34.12873,1001.45
1.473289013,0.8497696,0.7653016,0.5516009,-0.4718828,0.09468736,0.8519366,42.64467,-28.96227,-34.12873,1001.45
1.475786209,0.9114647,0.5863833,0.6738281,-0.467952,0.09328973,0.8500336,42.64467,-28.96227,-34.12873,1001.45
1.478282929,1.406875,0.7053177,0.7348166,-0.4660042,0.09447632,0.862921,41.52945,-28.24828,-34.13929,1001.45
1.480780125,1.468395,0.7050961,0.9793865,-0.4768118,0.09758431,0.8586061,41.52945,-28.24828,-34.13929,1001.45
1.483277321,1.158123,0.4666374,0.7954782,-0.4750383,0.1072421,0.8518489,41.52945,-28.24828,-34.13929,1001.45
1.485774040,0.724025,0.4664908,0.672828,-0.4651967,0.1030458,0.8490071,41.52945,-28.24828,-34.13929,1001.45
1.488271713,0.5379112,0.5854629,0.8562171,-0.4674227,0.09144925,0.8567337,41.52945,-28.24828,-34.13929,1001.45
1.490768910,1.219325,0.5257196,0.9783486,-0.4714001,0.09522828,0.8552761,41.52945,-28.24828,-34.13929,1001.45
1.493265629,1.590715,0.4064358,1.222842,-0.4740765,0.1082723,0.8547069,41.52945,-28.24828,-34.13929,1001.45
1.495762825,0.9705941,0.3467489,1.222458,-0.4719741,0.1006978,0.8657461,41.52945,-28.24828,-34.13929,1001.45
1.498260021,0.164782,0.2870806,1.160874,-0.4673582,0.087496,0.8515076,41.52945,-28.24828,-34.13929,1001.45
1.500756741,0.9702374,0.2274311,1.344109,-0.466797,0.08306152,0.8458069,41.52945,-28.24828,-34.13929,1001.45
1.503253937,1.899364,0.4060376,1.466088,-0.4699675,0.0960113,0.8390291,41.52945,-28.24828,-34.13929,1001.45
1.505751133,2.642312,0.5845879,1.649228,-0.4691878,0.107847,0.8513635,41.52945,-28.24828,-34.13929,1001.45
1.508247852,2.517558,0.5844043,1.281508,-0.4672802,0.1115051,0.8675768,41.52945,-28.24828,-34.13929,1001.45
1.510745525,1.277525,0.2268649,1.403506,-0.4653065,0.1106216,0.8709257,41.52945,-28.24828,-34.13929,1001.447
1.513242722,0.5955409,-0.1305622,1.586666,-0.4675928,0.1012067,0.8604856,41.52945,-28.24828,-34.13929,1001.447
1.515739441,0.4714297,-0.07096189,1.402567,-0.4612384,0.1008258,0.8580962,41.52945,-28.24828,-34.13929,1001.447
1.518236637,0.6571679,0.4055348,1.340926,-0.4619091,0.08323742,0.8510572,41.52945,-28.24828,-34.13929,1001.447
1.520733833,1.276582,0.4054074,1.462905,-0.4693254,0.08786197,0.8457742,41.52945,-28.24828,-34.13929,1001.447
1.523230553,1.957764,0.6435173,1.584846,-0.4685349,0.09863038,0.8509512,41.52945,-28.24828,-34.13929,1001.447
1.525727749,2.328922,0.2859593,1.767949,-0.4770846,0.1119628,0.8451291,41.52945,-28.24828,-34.13929,1001.447
1.528227806,1.832493,0.1667508,1.522592,-0.4726498,0.1101935,0.8508711,41.90979,-28.96963,-33.68074,1001.447
1.530722618,1.088373,0.04757984,1.399714,-0.4624988,0.1168582,0.8608485,41.90979,-28.96963,-33.68074,1001.447
1.533219338,1.149993,0.0475649,1.399274,-0.4579451,0.1082561,0.8637732,41.90979,-28.96963,-33.68074,1001.447
1.535716534,0.839821,0.3453465,1.460034,-0.4608053,0.103703,0.8547317,41.90979,-28.96963,-33.68074,1001.447
1.538213730,0.8395572,0.2856787,1.398376,-0.467169,0.1039486,0.8470911,41.90979,-28.96963,-33.68074,1001.447
1.540710449,1.33499,0.106911,1.397936,-0.4692715,0.112745,0.8546722,41.90979,-28.96963,-33.68074,1001.447
1.543207646,1.458495,0.1068774,1.030296,-0.4599389,0.1100715,0.8575518,41.90979,-28.96963,-33.68074,1001.447
1.545704842,1.024302,0.2259624,1.029972,-0.4550664,0.1112438,0.8647056,41.90979,-28.96963,-33.68074,1001.447
1.548201561,0.8380941,0.3450101,1.090849,-0.4678738,0.1166911,0.8570316,41.90979,-28.96963,-33.68074,1001.447
1.550699234,0.7139066,0.2853424,0.9069056,-0.4702125,0.1107957,0.855642,41.90979,-28.96963,-33.68074,1001.447
1.553196430,0.2179856,0.1065748,0.7842203,-0.4617102,0.09983179,0.8571482,41.90979,-28.96963,-33.68074,1001.449
1.555693150,-0.0299313,0.1661007,0.7839739,-0.4631976,0.1013077,0.8609599,41.90979,-28.96963,-33.68074,1001.449
1.558190346,0.4657748,0.463845,0.7225274,-0.4646961,0.1026226,0.8528311,41.90979,-28.96963,-33.68074,1001.449
1.560687542,1.023287,0.4636993,0.905901,-0.4706502,0.1072399,0.8446814,41.90979,-28.96963,-33.68074,1001.449
1.563189030,1.022966,0.4039943,1.028017,-0.4721027,0.1073889,0.8580558,41.90979,-28.96963,-33.68074,1001.449
1.565681458,0.4649856,0.4038673,0.7828931,-0.4671573,0.1047303,0.8690581,41.90979,-28.96963,-33.68074,1001.449
1.568178654,0.2169912,0.2846219,0.7214469,-0.4710315,0.1020587,0.8571379,41.90979,-28.96963,-33.68074,1001.449
1.570675373,0.4647714,0.3440917,0.7212203,-0.4691956,0.1083452,0.8523152,41.90979,-28.96963,-33.68074,1001.449
1.573173046,0.7124738,0.4631023,0.7209937,-0.4661936,0.1045645,0.8552064,41.90979,-28.96963,-33.68074,1001.449
1.575670242,0.5263637,0.2842789,0.5371665,-0.4637184,0.1032706,0.8633345,41.90979,-28.96963,-33.68074,1001.449
1.578166962,0.5261983,0.3437489,0.4145974,-0.4662192,0.1060268,0.8556737,41.90995,-28.96113,-33.23427,1001.449
1.580664158,0.4021088,0.3436409,0.4756674,-0.4731223,0.1098008,0.8585168,41.90995,-28.96113,-33.23427,1001.449
1.583161354,0.2780583,0.4626515,0.475518,-0.4661947,0.1051593,0.8633226,41.90995,-28.96113,-33.23427,1001.449
1.585658550,0.1540468,0.4625062,0.3529681,-0.465612,0.09920447,0.852856,41.90995,-28.96113,-33.23427,1001.449
1.588160038,0.3398846,0.4623609,0.4752577,-0.47067,0.108786,0.8513576,41.90995,-28.96113,-33.23427,1001.449
1.590652466,0.5256642,0.4026563,0.2915077,-0.4682628,0.1107862,0.8518196,41.90995,-28.96113,-33.23427,1001.449
1.593150139,0.3396127,0.4620891,0.3526164,-0.4642833,0.1070394,0.8556653,41.90995,-28.96113,-33.23427,1001.45
1.595646858,0.2155818,0.4023846,0.2913054,-0.4667144,0.1065274,0.8575811,41.90995,-28.96113,-33.23427,1001.45
1.598144055,0.2774762,0.2831396,0.1688135,-0.4687828,0.112762,0.8551494,41.90995,-28.96113,-33.23427,1001.45
1.600641251,0.215427,0.2234914,-0.01484018,-0.4672383,0.1084452,0.8566124,41.90995,-28.96113,-33.23427,1001.45
1.603137970,0.09143509,0.1043026,0.04636468,-0.4677179,0.1079494,0.8566162,41.90995,-28.96113,-33.23427,1001.45
1.605635166,-0.156442,0.2829477,-0.01485008,-0.4646986,0.1031981,0.8595144,41.90995,-28.96113,-33.23427,1001.45
1.608132363,-0.1563928,0.2828588,-0.07604562,-0.4633058,0.1070733,0.8566198,41.90995,-28.96113,-33.23427,1001.45
1.610629082,0.2154288,0.2232106,0.04637867,-0.4656752,0.103177,0.8595151,41.90995,-28.96113,-33.23427,1001.45
1.613126278,0.4012474,0.7591742,-0.1372365,-0.4690574,0.1011817,0.8609642,41.90995,-28.96113,-33.23427,1001.45
1.615623951,0.0913109,0.4611392,-0.1371934,-0.4700927,0.1039758,0.85378,41.90995,-28.96113,-33.23427,1001.45
1.618120670,-0.2185282,0.1631978,-0.1371503,-0.4681499,0.1044773,0.8518646,41.90995,-28.96113,-33.23427,1001.45
1.620617867,-0.0945354,-0.01553134,-0.1371072,-0.4534884,0.1043587,0.8556781,41.90995,-28.96113,-33.23427,1001.45
1.623115063,0.2153048,0.5205072,-0.1982643,-0.4601901,0.09699662,0.8605112,41.90995,-28.96113,-33.23427,1001.45
1.625611782,0.3391613,0.758581,-0.07580164,-0.4801722,0.09406861,0.8552895,41.90995,-28.96113,-33.23427,1001.45
1.628114224,0.1531685,0.3414275,0.169023,-0.476905,0.1017329,0.842336,41.90995,-28.96113,-33.23427,1001.45
1.630606175,0.2150825,0.04352374,-0.07583092,-0.4594648,0.1110977,0.8608879,41.90995,-28.96113,-33.23427,1001.45
1.633103848,0.09109069,0.222188,-0.1370073,-0.4694508,0.09643418,0.8695963,41.90995,-28.96113,-33.23427,1001.448
1.635600567,-0.1567863,0.4007961,0.1690367,-0.4859832,0.09037151,0.8424224,41.90995,-28.96113,-33.23427,1001.448
1.638097763,0.2150355,0.1028737,0.2301838,-0.4734405,0.09881089,0.8361452,41.90995,-28.96113,-33.23427,1001.448
1.640594959,0.5247784,0.1624006,0.1689113,-0.4510315,0.1040226,0.8628441,41.90995,-28.96113,-33.23427,1001.448
1.643091679,0.4626515,0.5792648,0.04645786,-0.4617777,0.1043541,0.86858,41.90995,-28.96113,-33.23427,1001.448
1.645588875,0.6483924,0.8768793,0.1076435,-0.4808647,0.1051555,0.8504342,41.90995,-28.96113,-33.23427,1001.448
1.648086071,0.4623024,0.4001293,0.1688098,-0.4761645,0.1148312,0.8403314,41.90995,-28.96113,-33.23427,1001.448
1.650582791,0.2143088,0.280885,0.1075566,-0.4565864,0.1146931,0.8708915,41.90995,-28.96113,-33.23427,1001.448
1.653079987,-0.4053794,0.5785934,0.1075228,-0.4664958,0.09502842,0.8686493,41.90995,-28.96113,-33.23427,1001.448
1.655577660,-0.34329,0.3401743,0.1686893,-0.4810255,0.08605733,0.8386289,41.90995,-28.96113,-33.23427,1001.448
1.658074379,0.2144767,0.3400675,0.2298364,-0.4684552,0.09367432,0.8433439,41.90995,-28.96113,-33.23427,1001.448
1.660571575,1.081879,0.4590792,0.1685641,-0.4656316,0.1001429,0.8504611,41.90995,-28.96113,-33.23427,1001.448
1.663068772,1.391349,0.3398164,0.4133119,-0.4672076,0.106446,0.8523276,41.90995,-28.96113,-33.23427,1001.448
1.665565491,0.5854049,0.2801504,0.3519818,-0.4633399,0.1096351,0.8666325,41.90995,-28.96113,-33.23427,1001.448
1.668062687,0.02756214,0.3396217,0.2294709,-0.4661952,0.1051528,0.8628449,41.90995,-28.96113,-33.23427,1001.448
1.670559883,-0.03440861,0.3990743,0.290599,-0.4748406,0.0954403,0.840469,41.90995,-28.96113,-33.23427,1001.448
1.673056603,0.3373747,0.1011524,0.2905077,-0.4686427,0.1044024,0.8470888,41.90995,-28.96113,-33.23427,1001.449
1.675558090,0.6470792,0.2202392,0.2904164,-0.4657916,0.1094344,0.8556492,41.90995,-28.96113,-33.23427,1001.449
1.678051472,0.3370655,0.4584072,0.229125,-0.4641611,0.1008658,0.8657403,41.53595,-28.60866,-33.6864,1001.449
1.680548191,-0.2826613,0.5178225,0.229053,-0.4743502,0.0967049,0.861477,41.53595,-28.60866,-33.6864,1001.449
1.683045387,0.2131242,0.2198633,0.2901812,-0.4754127,0.1003279,0.8437781,41.53595,-28.60866,-33.6864,1001.449
1.685542584,0.8326782,0.2197942,0.2288899,-0.4662401,0.1069458,0.8518459,41.53595,-28.60866,-33.6864,1001.449
1.688039780,0.6465303,0.5175217,0.1676178,-0.4662786,0.1094432,0.8570824,41.53595,-28.60866,-33.6864,1001.449
1.690536499,0.2125925,0.4577998,0.1675651,-0.4623539,0.1085695,0.8580416,41.53595,-28.60866,-33.6864,1001.449
1.693033695,-0.1592468,0.3385374,0.2287127,-0.4716427,0.108823,0.8556569,41.53595,-28.60866,-33.6864,1001.449
1.695531368,0.0886516,0.1597531,0.2286408,-0.4794285,0.1066042,0.8475571,41.53595,-28.60866,-33.6864,1001.449
1.698027611,-0.1592246,-0.1976528,0.04496839,-0.4670916,0.1001822,0.8557159,41.53595,-28.60866,-33.6864,1001.449
1.700525284,-0.3450609,-0.01891286,-0.07744615,-0.4616185,0.0950497,0.8624366,41.53595,-28.60866,-33.6864,1001.449
1.703022957,-0.0971041,0.2193303,0.167379,-0.4700285,0.1000161,0.8480762,41.53595,-28.60866,-33.6864,1001.449
1.705519199,0.5225473,0.5170579,0.1673264,-0.4687811,0.1121736,0.8475111,41.53595,-28.60866,-33.6864,1001.449
1.708016396,1.01808,0.5764548,0.04487344,-0.4746021,0.1101643,0.8518278,41.53595,-28.60866,-33.6864,1001.449
1.710513592,0.5840254,0.1593585,0.04485934,-0.4736667,0.1126441,0.8541979,41.53595,-28.60866,-33.6864,1001.449
1.713010311,-0.2836274,-0.07892872,0.04484525,-0.4610308,0.1169348,0.8641908,41.53595,-28.60866,-33.6864,1001.451
1.715507507,-0.5313866,0.09977398,-0.1999696,-0.4617935,0.1047363,0.8609346,41.53595,-28.60866,-33.6864,1001.451
1.718005180,-0.4692575,0.2784205,-0.01630622,-0.4700528,0.1014978,0.8499763,41.53595,-28.60866,-33.6864,1001.451
1.720501900,-0.0973376,0.2187738,0.1060993,-0.4681071,0.1014302,0.8418553,41.53595,-28.60866,-33.6864,1001.451
1.722999096,0.3983897,0.3973829,-0.07753463,-0.4613895,0.1090243,0.8542165,41.53595,-28.60866,-33.6864,1001.451
1.725496292,0.3982646,0.6354953,-0.1999107,-0.4707041,0.1113478,0.8613703,41.53595,-28.60866,-33.6864,1001.451
1.727993011,-0.03559521,0.2779399,-0.1998479,-0.4737132,0.1150254,0.8508373,41.52979,-28.23128,-33.24636,1001.451
1.730490208,-0.5312807,0.09917463,-0.3221855,-0.4654073,0.1146607,0.846536,41.52979,-28.23128,-33.24636,1001.451
1.732987404,-0.4691517,0.4564993,-0.3220843,-0.4644146,0.1136918,0.8451093,41.52979,-28.23128,-33.24636,1001.451
1.735484123,-0.3450802,0.5754745,-0.4443835,-0.4653064,0.1093998,0.8523055,41.52979,-28.23128,-33.24636,1001.451
1.737981319,-0.530858,0.3966157,-0.6278445,-0.4673616,0.1152135,0.8546535,41.52979,-28.23128,-33.24636,1001.451
1.740478992,-0.7785396,0.2773726,-0.7500476,-0.4635338,0.1196588,0.8541419,41.52979,-28.23128,-33.24636,1001.451
1.742976189,-0.9022192,0.1581668,-0.6886118,-0.4590177,0.1135669,0.8632584,41.52979,-28.23128,-33.24636,1001.451
1.745472908,-1.149784,0.1581171,-0.9331963,-0.4545149,0.1072817,0.8580462,41.52979,-28.23128,-33.24636,1001.451
1.747970104,-0.9635366,0.2771861,-0.9329031,-0.4604303,0.1100159,0.8542089,41.52979,-28.23128,-33.24636,1001.451
1.750467300,-1.087158,0.09842108,-1.05501,-0.4526953,0.1151658,0.8637208,41.52979,-28.23128,-33.24636,1001.451
1.752964020,-1.520551,0.3961866,-1.177079,-0.4575679,0.1146012,0.8656384,41.52979,-28.23128,-33.24636,1001.448
1.755461216,-1.953808,0.4556215,-1.42151,-0.4643341,0.1099705,0.8570774,41.52979,-28.23128,-33.24636,1001.448
1.757958889,-2.139081,0.2172412,-1.421064,-0.4679992,0.09627239,0.8552666,41.52979,-28.23128,-33.24636,1001.448
1.760455131,-2.138409,0.2171729,-1.237017,-0.4617611,0.1021487,0.8490114,41.52979,-28.23128,-33.24636,1001.448
1.762952805,-2.137737,0.3362233,-1.236628,-0.4579101,0.1057072,0.8547158,41.52979,-28.23128,-33.24636,1001.448
1.765450001,-1.951179,0.4552363,-1.23624,-0.4607721,0.1023502,0.862384,41.52979,-28.23128,-33.24636,1001.448
1.767946720,-1.950566,0.4550932,-1.419452,-0.4598267,0.1043639,0.8661904,41.52979,-28.23128,-33.24636,1001.448
1.770443916,-2.321726,0.5145096,-1.357806,-0.4675759,0.1002297,0.8600149,41.52979,-28.23128,-33.24636,1001.448
1.772941112,-2.382958,0.5739073,-1.234979,-0.4641059,0.09677729,0.8504842,41.52979,-28.23128,-33.24636,1001.448
1.775437832,-2.444172,0.573727,-1.295791,-0.4631366,0.09730291,0.8519129,41.52979,-28.23128,-33.24636,1001.448
1.777935028,-2.505366,0.5735467,-1.295384,-0.4622003,0.09979551,0.8552381,41.89731,-28.22336,-33.24712,1001.448
1.780432701,-2.008882,0.6924851,-1.294977,-0.4612288,0.1003534,0.8590549,41.89731,-28.22336,-33.24712,1001.448
1.782929420,-1.636479,0.8709455,-1.17217,-0.4622736,0.1042341,0.8604608,41.89731,-28.22336,-33.24712,1001.448
1.785426617,-1.574002,0.9302312,-1.233002,-0.4686403,0.1050488,0.8590258,41.89731,-28.22336,-33.24712,1001.448
1.787923813,-1.63547,0.9894983,-1.232614,-0.472015,0.1025488,0.8590456,41.89731,-28.22336,-33.24712,1001.448
1.790421009,-2.068691,0.9296281,-0.9874263,-0.4665069,0.09486734,0.8567088,41.89731,-28.22336,-33.24712,1001.448
1.792917728,-1.75823,0.9888954,-0.9259159,-0.463101,0.09537462,0.8528819,41.89731,-28.22336,-33.24712,1001.45
1.795414925,-1.323944,1.226822,-0.9868252,-0.4645523,0.09492868,0.8581402,41.89731,-28.22336,-33.24712,1001.45
1.797912598,-0.889793,1.464674,-0.925315,-0.4782203,0.09409129,0.8538553,41.89731,-28.22336,-33.24712,1001.45
1.800408840,-0.8895134,1.166417,-0.7414237,-0.4753826,0.09892996,0.8480871,41.89731,-28.22336,-33.24712,1001.45
1.802906513,-0.951196,1.046932,-0.7411907,-0.4607309,0.09989145,0.8600132,41.89731,-28.22336,-33.24712,1001.45
1.805403709,-1.198746,1.3444,-0.9245585,-0.4610977,0.0930868,0.860062,41.89731,-28.22336,-33.24712,1001.45
1.807900429,-1.074445,1.760892,-0.8630679,-0.4770212,0.08083531,0.8410522,41.89731,-28.22336,-33.24712,1001.45
1.810397625,-0.08271385,1.64122,-0.6791961,-0.4801751,0.09341578,0.8428749,41.89731,-28.22336,-33.24712,1001.45
1.812894821,0.5988951,1.16423,-0.7401829,-0.4760624,0.1108114,0.866154,41.89731,-28.22336,-33.24712,1001.45
1.815391540,-0.1448381,0.806509,-0.6787502,-0.4829808,0.1155882,0.8713782,41.89731,-28.22336,-33.24712,1001.45
1.817888737,-1.631883,0.6871369,-0.5561365,-0.479869,0.1054536,0.8709711,41.89731,-28.22336,-33.24712,1001.45
1.820386410,-2.498839,0.5678025,-0.4335614,-0.4780981,0.08669586,0.84531,41.89731,-28.22336,-33.24712,1001.45
1.822882652,-1.692547,0.4485055,-0.3110248,-0.4706612,0.07992394,0.835323,41.89731,-28.22336,-33.24712,1001.45
1.825380325,-0.3288494,0.8652797,-0.3109271,-0.4755419,0.08046529,0.8472636,41.89731,-28.22336,-33.24712,1001.45
1.827877521,0.7246094,1.103245,0.05637178,-0.4840729,0.09284645,0.8428813,41.5421,-28.98605,-34.12644,1001.45
1.830374241,0.3526092,0.6859834,0.1787545,-0.475372,0.0990846,0.8595499,41.5421,-28.98605,-34.12644,1001.45
1.832871437,-0.700857,0.4475307,0.1174981,-0.4611326,0.09563571,0.8691195,41.5421,-28.98605,-34.12644,1001.448
1.835368633,-0.6386748,0.5665087,0.2398616,-0.4752397,0.0912232,0.852441,41.5421,-28.98605,-34.12644,1001.448
1.837865353,0.04310882,0.2089749,0.2397863,-0.4817166,0.09716355,0.8352064,41.5421,-28.98605,-34.12644,1001.448
1.840362549,0.538792,0.2684685,0.1785107,-0.4690867,0.1019783,0.8480616,41.5421,-28.98605,-34.12644,1001.448
1.842860222,0.1668502,-0.02941232,0.2396548,-0.4670502,0.09833768,0.8628941,41.5421,-28.98605,-34.12644,1001.448
1.845357418,0.1048357,0.1492748,0.2395795,-0.4807661,0.09986233,0.8538156,41.5421,-28.98605,-34.12644,1001.448
1.847854137,0.1048028,0.2683465,0.3619047,-0.4813022,0.1022139,0.8490224,41.5421,-28.98605,-34.12644,1001.448
1.850351334,0.2906561,-0.02953428,0.3005908,-0.4788615,0.1022535,0.8480654,41.5421,-28.98605,-34.12644,1001.448
1.852848530,-0.1431699,-0.4464401,0.2392962,-0.4724596,0.09950405,0.849992,41.5421,-28.98605,-34.12644,1001.448
1.855345249,-0.2670491,-0.6249777,0.4228216,-0.4616995,0.09876455,0.8499909,41.5421,-28.98605,-34.12644,1001.448
1.857842445,0.2287316,-0.08874771,0.3002883,-0.471476,0.09962816,0.8576331,41.5421,-28.98605,-34.12644,1001.448
1.860340118,0.6623944,0.03039877,0.2389938,-0.4875772,0.0982465,0.8528758,41.5421,-28.98605,-34.12644,1001.448
1.862836361,0.3523758,-0.6843224,0.3613191,-0.4798759,0.1047428,0.8542579,41.5421,-28.98605,-34.12644,1001.448
1.865334034,-0.2673558,-1.160582,0.1164048,-0.4657681,0.108554,0.8623427,41.5421,-28.98605,-34.12644,1001.448
1.867831230,-0.5151201,-0.8624207,0.1163682,-0.4662187,0.1060332,0.8561513,41.5421,-28.98605,-34.12644,1001.448
1.870327949,-0.26711,-0.4452346,0.2999323,-0.4636412,0.09889006,0.8624104,41.5421,-28.98605,-34.12644,1001.448
1.872825146,0.2906327,-0.08773898,0.1774376,-0.4778692,0.1018923,0.8557101,41.5421,-28.98605,-34.12644,1001.449
1.875322342,0.7862382,-0.2663893,0.2997823,-0.4871397,0.1011881,0.8542876,41.5421,-28.98605,-34.12644,1001.449
1.877819061,0.2283323,-0.4449835,0.3608883,-0.4695668,0.1026979,0.866208,42.27099,-28.59282,-33.68793,1001.449
1.880316257,-0.205474,-0.6235216,0.2383746,-0.456822,0.09939998,0.8533272,42.27099,-28.59282,-33.68793,1001.449
1.882813930,0.4142115,-0.3255292,0.2382997,-0.462154,0.09679997,0.8490498,42.27099,-28.59282,-33.68793,1001.449
1.885311127,0.909778,-0.08718978,0.5442258,-0.46802,0.09780559,0.8609877,42.27099,-28.59282,-33.68793,1001.449
1.887807846,1.033416,0.03195622,0.3604542,-0.4655005,0.09409817,0.8700883,42.27099,-28.59282,-33.68793,1001.449
1.890305042,0.5993571,-0.02761312,0.4827414,-0.4727394,0.08846059,0.8596242,42.27099,-28.59282,-33.68793,1001.449
1.892802238,0.6611309,-0.02760445,0.5437899,-0.4725229,0.1034766,0.8566509,42.27099,-28.59282,-33.68793,1001.449
1.895298958,0.4750369,-0.2062737,0.5436191,-0.4662873,0.1099285,0.8570789,42.27099,-28.59282,-33.68793,1001.449
1.897796154,0.9705845,0.1511469,0.4210479,-0.4637311,0.1036979,0.8590325,42.27099,-28.59282,-33.68793,1001.449
1.900293827,1.465976,0.1510994,0.4209156,-0.4760662,0.1101457,0.8527841,42.27099,-28.59282,-33.68793,1001.449
1.902790070,0.8458948,-0.02762592,0.5431838,-0.4678208,0.1137922,0.8580076,42.27099,-28.59282,-33.68793,1001.449
1.905287743,0.1020839,-0.1467358,0.481813,-0.4579102,0.106929,0.873336,42.27099,-28.59282,-33.68793,1001.449
1.907784939,-0.08383441,-0.1466897,0.4816616,-0.4766599,0.08878454,0.8538923,42.27099,-28.59282,-33.68793,1001.449
1.910281658,0.2879645,-0.02752506,0.5427105,-0.4826514,0.09530445,0.8428629,42.27099,-28.59282,-33.68793,1001.449
1.912778854,0.6596466,-0.146635,0.4813398,-0.4637444,0.1035046,0.844704,42.27099,-28.59282,-33.68793,1001.452
1.915276051,0.8453256,-0.2657076,0.297588,-0.4554926,0.1078555,0.866163,42.27099,-28.59282,-33.68793,1001.452
1.917772770,0.9689842,0.4490875,0.05269367,-0.4705977,0.1055565,0.8637999,42.27099,-28.59282,-33.68793,1001.452
1.920269966,0.9686798,0.4489464,0.3586781,-0.4838675,0.1089233,0.8465878,42.27099,-28.59282,-33.68793,1001.452
1.922767639,0.4107167,-0.2063469,0.4197657,-0.4683391,0.1151796,0.853699,42.27099,-28.59282,-33.68793,1001.452
1.925263882,-0.2090333,-0.6827564,0.2360332,-0.4592903,0.1014046,0.8619123,42.27099,-28.59282,-33.68793,1001.452
1.927761555,-0.518778,-0.3847455,0.1747588,-0.4673807,0.08900344,0.8553181,42.27116,-28.58432,-33.24146,1001.452
1.930258751,0.1629679,-0.0868281,0.2971043,-0.470331,0.08986591,0.8519701,42.27116,-28.58432,-33.24146,1001.452
1.932755470,1.526083,0.2109957,0.6642122,-0.4777638,0.09547392,0.8476355,42.27116,-28.58432,-33.24146,1001.452
1.935252666,1.71149,0.1513701,0.5416031,-0.4780172,0.1101359,0.8551736,42.27116,-28.58432,-33.24146,1001.452
1.937749863,0.6575963,-0.3251519,0.1742318,-0.4677816,0.1119155,0.8627976,42.27116,-28.58432,-33.24146,1001.452
1.940247059,-0.2100795,-0.3250497,0.174177,-0.4573382,0.1020415,0.8700269,42.27116,-28.58432,-33.24146,1001.452
1.942743778,-0.08608935,0.09196751,0.4189231,-0.4723168,0.09179729,0.8543459,42.27116,-28.58432,-33.24146,1001.452
1.945241451,0.7194449,0.03237931,0.4799917,-0.4797259,0.09530304,0.8380846,42.27116,-28.58432,-33.24146,1001.452
1.947738647,1.152954,-0.384546,0.5410411,-0.4696831,0.1077334,0.8437219,42.27116,-28.58432,-33.24146,1001.452
1.950235367,0.9667051,-0.146188,0.4184707,-0.4536149,0.1123039,0.8689961,42.27116,-28.58432,-33.24146,1001.452
1.952732563,0.6565909,0.2707731,0.2347386,-0.4625651,0.09363078,0.8667463,42.27116,-28.58432,-33.24146,1001.452
1.955229759,0.3465741,0.0324508,0.2346649,-0.4772629,0.09505712,0.8519372,42.27116,-28.58432,-33.24146,1001.452
1.957726479,0.4084274,-0.1462373,0.5405922,-0.4745115,0.1047552,0.846612,42.27116,-28.58432,-33.24146,1001.452
1.960223675,0.7800716,-0.02707275,0.3568217,-0.4681573,0.104982,0.853294,42.27116,-28.58432,-33.24146,1001.452
1.962720871,0.6559024,0.09205435,0.4179099,-0.4758578,0.0984986,0.8528671,42.27116,-28.58432,-33.24146,1001.452
1.965217590,0.5937341,-0.08665247,0.4789788,-0.473465,0.1009003,0.8471166,42.27116,-28.58432,-33.24146,1001.452
1.967715263,0.6555098,-0.5630996,0.2952277,-0.4622751,0.1036006,0.849479,42.27116,-28.58432,-33.24146,1001.452
1.970212460,0.3454933,-0.1460076,0.2951349,-0.4558654,0.1015748,0.869074,42.27116,-28.58432,-33.24146,1001.452
1.972709179,0.2834227,0.09227543,0.4174426,-0.4719395,0.09814243,0.856211,42.27116,-28.58432,-33.24146,1001.452
1.975206375,0.4692199,-0.2651094,0.3561113,-0.4687569,0.1106919,0.8456109,42.27116,-28.58432,-33.24146,1001.452
1.977704525,0.4071105,-0.1459075,0.1111986,-0.4529934,0.1044658,0.8628421,41.53611,-28.60017,-33.23993,1001.452
1.980200291,-0.02675208,-0.02674304,0.2947643,-0.4579422,0.107687,0.8575677,41.53611,-28.60017,-33.23993,1001.452
1.982697487,0.03521841,0.03282467,0.3558719,-0.4673512,0.114754,0.8565674,41.53611,-28.60017,-33.23993,1001.452
1.985195160,-0.02675474,0.2114923,0.04975906,-0.4676511,0.1040283,0.8537782,41.53611,-28.60017,-33.23993,1001.452
1.987692356,-0.02674634,0.2114258,0.3557444,-0.4661137,0.1002226,0.8571481,41.53611,-28.60017,-33.23993,1001.452
1.990189075,0.2211104,0.03268149,0.3556327,-0.4646939,0.1026548,0.8552192,41.53611,-28.60017,-33.23993,1001.452
1.992686272,0.09711678,0.390027,0.2331205,-0.4681246,0.1036227,0.8604686,41.53611,-28.60017,-33.23993,1001.452
1.995183468,0.09708627,0.2112266,0.4166479,-0.4642559,0.1056028,0.8571085,41.53611,-28.60017,-33.23993,1001.451
1.997680187,0.1590179,0.3302788,0.3553168,-0.4685579,0.1001314,0.8542842,41.53611,-28.60017,-33.23993,1001.451
2.000177383,0.4068163,0.5684123,0.4164054,-0.4709534,0.09769102,0.857169,41.53611,-28.60017,-33.23993,1001.451
2.002674580,0.2827643,0.4491151,0.232674,-0.4711326,0.1079274,0.8604397,41.53611,-28.60017,-33.23993,1001.451
2.005171299,-0.027135,0.5680926,0.2938011,-0.4652039,0.1041646,0.8599854,41.53611,-28.60017,-33.23993,1001.451
2.007668972,-0.2749749,0.6274735,0.4161092,-0.4710585,0.1035017,0.8561723,41.53611,-28.60017,-33.23993,1001.451
2.010166168,-0.2129264,0.6272763,0.2935781,-0.4734381,0.09945728,0.8480822,41.53611,-28.60017,-33.23993,1001.451
2.012662888,0.1589131,0.6270792,0.4158862,-0.4754612,0.1032912,0.8475783,41.53611,-28.60017,-33.23993,1001.451
2.015160084,0.2827873,0.6864415,0.4157556,-0.4758843,0.09994804,0.8523791,41.53611,-28.60017,-33.23993,1001.451
2.017657280,0.03485013,0.5671073,0.5992256,-0.473408,0.09805938,0.8523911,41.53611,-28.60017,-33.23993,1001.451
2.020153999,0.09680127,0.3882512,0.5990373,-0.4714878,0.1000684,0.8542864,41.53611,-28.60017,-33.23993,1001.451
2.022651196,0.5305055,0.3285699,0.6600493,-0.4744281,0.1004649,0.8523746,41.53611,-28.60017,-33.23993,1001.451
2.025148392,0.7781873,0.3284667,0.7822424,-0.4714691,0.09911709,0.8557261,41.53611,-28.60017,-33.23993,1001.451
2.027646065,0.7779428,0.3283635,0.7819966,-0.4740348,0.1058201,0.8528138,42.27099,-28.59282,-33.68793,1001.451
2.030142784,0.5918121,0.3878197,0.5981503,-0.4692047,0.108824,0.8518342,42.27099,-28.59282,-33.68793,1001.451
2.032639980,0.529664,0.3876978,0.6591626,-0.4730074,0.10291,0.851401,42.27099,-28.59282,-33.68793,1001.451
2.035137177,0.4055735,0.2684574,0.7813559,-0.4744797,0.1033831,0.8528314,42.27099,-28.59282,-33.68793,1001.453
2.037633896,0.4054461,0.2088138,0.8423107,-0.46575,0.1069821,0.853756,42.27099,-28.59282,-33.68793,1001.453
2.040131092,0.5292429,0.2087482,0.5972452,-0.468669,0.106466,0.8561497,42.27099,-28.59282,-33.68793,1001.453
2.042628288,0.5290766,0.4469198,0.5358574,-0.466168,0.1031021,0.8547392,42.27099,-28.59282,-33.68793,1001.453
2.045125008,0.03321364,0.1489829,0.7192897,-0.4715637,0.1044682,0.8566433,42.27099,-28.59282,-33.68793,1001.453
2.047622681,-0.1526831,0.2084954,0.5966633,-0.4734721,0.1020191,0.8580949,42.27099,-28.59282,-33.68793,1001.453
2.050119877,-0.4004835,0.2679892,0.5964758,-0.4686311,0.1045699,0.8595068,42.27099,-28.59282,-33.68793,1001.453
2.052616596,-0.5242818,0.2083457,0.6574886,-0.4700484,0.1015622,0.8547524,42.27099,-28.59282,-33.68793,1001.453
2.055113792,-0.3382308,0.2082803,0.7796825,-0.4740141,0.1042869,0.8470927,42.27099,-28.59282,-33.68793,1001.453
2.057610989,0.2195342,0.4464521,0.7794375,-0.4724813,0.1010244,0.8547577,42.27099,-28.59282,-33.68793,1001.453
2.060107708,0.1575032,0.4463118,0.7791927,-0.4723631,0.09479284,0.8605341,42.27099,-28.59282,-33.68793,1001.453
2.062604904,-0.4621672,0.327053,0.8401481,-0.4688503,0.08951522,0.8596144,42.27099,-28.59282,-33.68793,1001.453
2.065102100,0.03367469,0.3269502,0.9010844,-0.465617,0.09851943,0.8380533,42.27099,-28.59282,-33.68793,1001.453
2.067598820,1.272906,0.2672882,0.7172007,-0.4629918,0.1161691,0.8465238,42.27099,-28.59282,-33.68793,1001.453
2.070096493,1.520354,0.5650008,0.7781756,-0.4650822,0.1251395,0.8670006,42.27099,-28.59282,-33.68793,1001.453
2.072593689,0.03278659,0.5648233,0.7779311,-0.469252,0.1130285,0.8756874,42.27099,-28.59282,-33.68793,1001.453
2.075090408,-1.144503,0.1477307,0.7164865,-0.4743898,0.0985752,0.8562093,42.27099,-28.59282,-33.68793,1001.449
2.077587605,-0.9582575,-0.03099362,0.7162614,-0.4733348,0.09362082,0.8471684,42.27731,-28.9617,-33.68151,1001.449
2.080084801,-0.0285252,0.02857542,0.7160364,-0.4636571,0.0986581,0.8452162,42.27731,-28.9617,-33.68151,1001.449
2.082581997,0.5291426,0.3263629,0.593411,-0.4643051,0.1079456,0.8508822,42.27731,-28.9617,-33.68151,1001.449
2.085078716,0.4050522,0.5049383,0.7768252,-0.4549064,0.1019523,0.8595175,42.27731,-28.9617,-33.68151,1001.449
2.087575912,0.1570765,0.4452204,0.8989816,-0.4648471,0.1114352,0.8585002,42.27731,-28.9617,-33.68151,1001.449
2.090073586,0.2809514,0.3259619,0.7150986,-0.4658277,0.1113562,0.8542025,42.27731,-28.9617,-33.68151,1001.449
2.092570305,0.3428252,0.3258595,0.8984745,-0.4559898,0.1077161,0.856611,42.27731,-28.9617,-33.68151,1001.449
2.095067501,-0.02905504,0.3257571,0.8981922,-0.4682753,0.1118277,0.8570665,42.27731,-28.9617,-33.68151,1001.449
2.097564697,-0.2768943,0.563892,0.6531093,-0.4700611,0.1019895,0.8504505,42.27731,-28.9617,-33.68151,1001.449
2.100061417,-0.3387693,0.3254777,0.7753045,-0.4655772,0.09726328,0.8528699,42.27731,-28.9617,-33.68151,1001.449
2.102558613,-0.3386629,0.3253754,0.7138607,-0.4719388,0.09754115,0.8476173,42.27731,-28.9617,-33.68151,1001.449
2.105055809,0.03321599,0.3848325,0.4688357,-0.4716195,0.1067143,0.8432527,42.27731,-28.9617,-33.68151,1001.449
2.107552528,0.09516765,0.5633895,0.6522889,-0.4652308,0.1056076,0.8590198,42.27731,-28.9617,-33.68151,1001.449
2.110049725,0.281024,0.6823311,0.8356846,-0.4697836,0.1142226,0.8570503,42.27731,-28.9617,-33.68151,1001.449
2.112547398,0.3428978,0.6225575,0.7130217,-0.4741562,0.1132284,0.8623143,42.27731,-28.9617,-33.68151,1001.449
2.115044117,-0.7105654,0.3841246,0.7739979,-0.4710527,0.1035855,0.8623813,42.27731,-28.9617,-33.68151,1001.45
2.117541313,-1.206039,0.08620746,0.8349549,-0.4738062,0.09263328,0.8466981,42.27731,-28.9617,-33.68151,1001.45
2.120038509,-0.7719254,0.205299,0.651092,-0.4717647,0.08784166,0.8481641,42.27731,-28.9617,-33.68151,1001.45
2.122535229,-0.152062,0.5625903,0.7120877,-0.4747959,0.09303313,0.8419192,42.27731,-28.9617,-33.68151,1001.45
2.125032425,0.5915309,0.4432949,0.7730641,-0.4725963,0.107301,0.8523247,42.27731,-28.9617,-33.68151,1001.45
2.127529621,0.591345,0.3835964,0.6504209,-0.4722499,0.1156453,0.8584746,41.90347,-28.60074,-33.68716,1001.45
2.130027294,-0.27631,0.3239166,0.6502166,-0.4712003,0.1118355,0.8623224,41.90347,-28.60074,-33.68716,1001.45
2.132524014,-0.9578061,0.2046962,0.6500123,-0.4765062,0.1077796,0.8580555,41.90347,-28.60074,-33.68716,1001.45
2.135021210,-1.329278,0.2641912,0.649808,-0.4711323,0.1073196,0.8513684,41.90347,-28.60074,-33.68716,1001.45
2.137518406,-1.142974,0.2641082,0.4660034,-0.4708376,0.0908131,0.8510084,41.90347,-28.60074,-33.68716,1001.45
2.140015125,-0.8328044,0.08534732,0.6494575,-0.4757847,0.09344588,0.8380955,41.90347,-28.60074,-33.68716,1001.45
2.142512322,-0.4607702,0.02576122,0.7104537,-0.4690168,0.09810236,0.8485669,41.90347,-28.60074,-33.68716,1001.45
2.145009518,-0.3367013,0.204431,0.7102305,-0.4672332,0.1079083,0.8527949,41.90347,-28.60074,-33.68716,1001.45
2.147506237,-0.4605197,0.1448075,0.5264068,-0.4692588,0.1123177,0.8589743,41.90347,-28.60074,-33.68716,1001.45
2.162488937,-0.08778284,0.02590232,0.3418339,-0.4677453,0.1093859,0.8551729,41.90347,-28.60074,-33.68716,1001.452
2.164986134,-0.3356036,-0.1527837,0.3417265,-0.4722392,0.1145781,0.8513172,41.90347,-28.60074,-33.68716,1001.452
2.167483330,-0.1496119,-0.2718543,0.3416192,-0.4687086,0.1083363,0.8508821,41.90347,-28.60074,-33.68716,1001.452
2.169981003,-0.1495649,-0.2717689,0.2191115,-0.4677431,0.1094181,0.8575611,41.90347,-28.60074,-33.68716,1001.452
2.172477245,-0.3973663,-0.3312429,0.03544202,-0.4667187,0.1070771,0.8623538,41.90347,-28.60074,-33.68716,1001.452
2.174974918,-0.7070519,-0.3311388,0.09663108,-0.4651827,0.1026378,0.8547419,41.90347,-28.60074,-33.68716,1001.452
2.177472115,-0.7687919,-0.3310348,0.2190011,-0.4665635,0.09771468,0.8519119,41.90979,-28.96963,-33.68074,1001.452
2.179968834,-0.5826641,-0.2713715,0.03533173,-0.4710217,0.1009786,0.8490252,41.90979,-28.96963,-33.68074,1001.452
2.182466030,-0.2726706,-0.0926083,-0.02587957,-0.4710981,0.105372,0.8509046,41.90979,-28.96963,-33.68074,1001.452
2.184963226,-0.08669865,-0.0330199,0.09652895,-0.4681308,0.1035325,0.853782,41.90979,-28.96963,-33.68074,1001.452
2.187459946,-0.2105956,-0.1521281,0.09649863,-0.4756538,0.1145561,0.8551407,41.90979,-28.96963,-33.68074,1001.452
2.189957142,-0.1485673,-0.2116396,0.09646831,-0.4741105,0.1108341,0.8647197,41.90979,-28.96963,-33.68074,1001.452
2.192454815,-0.7681416,-0.4498103,0.0352378,-0.4672127,0.1069828,0.8561451,41.90979,-28.96963,-33.68074,1001.452
2.194951057,-1.139673,-0.5687876,-0.1483739,-0.4734654,0.1008938,0.846639,41.90979,-28.96963,-33.68074,1001.457
2.197448731,-0.8914664,-0.1516939,-0.1483273,-0.471364,0.09330641,0.8567228,41.90979,-28.96963,-33.68074,1001.457
2.199945927,-0.4574517,-0.3303241,-0.02588025,-0.4626296,0.09636216,0.8533522,41.90979,-28.96963,-33.68074,1001.457
2.202442646,0.224275,-0.3897796,-0.02587212,-0.466695,0.1049748,0.8504272,41.90979,-28.96963,-33.68074,1001.457
2.204939842,0.1002804,-0.2705386,-0.02586399,-0.4749947,0.1054297,0.8614151,41.90979,-28.96963,-33.68074,1001.457
2.207437038,-0.519372,-0.2108943,0.09654453,-0.4745768,0.1093097,0.8604318,41.90979,-28.96963,-33.68074,1001.457
2.209933758,-0.8909814,-0.3299466,-0.0870864,-0.47298,0.1014734,0.8528442,41.90979,-28.96963,-33.68074,1001.457
2.212430954,-0.7667773,-0.4489616,0.03534136,-0.4720221,0.1024457,0.8514037,41.90979,-28.96963,-33.68074,1001.457
2.214928627,-0.2708397,-0.4488205,0.09653046,-0.4667131,0.1065467,0.859014,41.90979,-28.96963,-33.68074,1001.457
2.217425823,-0.1468304,-0.3891202,-0.2095009,-0.4617979,0.1046719,0.8561584,41.90979,-28.96963,-33.68074,1001.457
2.219922543,0.03910195,-0.5081165,-0.2094351,-0.4642403,0.1046065,0.855205,41.90979,-28.96963,-33.68074,1001.457
2.222419739,-0.394645,-0.2697197,-0.08696886,-0.4682201,0.108961,0.8604306,41.90979,-28.96963,-33.68074,1001.457
2.224916935,-0.8282556,-0.3291943,-0.08694154,-0.4676716,0.1049538,0.8504279,41.90979,-28.96963,-33.68074,1001.457
2.227413654,-0.6421091,-0.5077688,0.03548618,-0.4670686,0.09868122,0.852383,41.53595,-28.60866,-33.6864,1001.457
2.229910851,-0.5799453,-0.4480499,-0.1481256,-0.4642381,0.1046387,0.8575931,41.53595,-28.60866,-33.6864,1001.457
2.232408524,-0.517801,-0.4479092,-0.2704794,-0.4666463,0.1026257,0.8561759,41.53595,-28.60866,-33.6864,1001.457
2.234904766,-0.6415625,-0.3882092,-0.2091943,-0.4715343,0.1024497,0.8509257,41.53595,-28.60866,-33.6864,1001.453
2.237402439,-0.4554747,-0.2689686,-0.2091285,-0.4731694,0.1115615,0.8451297,41.53595,-28.60866,-33.6864,1001.453
2.239899635,-0.2074833,-0.5666806,-0.2090628,-0.4687055,0.1083814,0.8542254,41.53595,-28.60866,-33.6864,1001.453
2.242396355,-0.8270389,-0.5665026,-0.3925978,-0.4618674,0.1085543,0.8561308,41.53595,-28.60866,-33.6864,1001.453
2.244893551,-1.13659,-0.447206,-0.5148748,-0.4589283,0.1081384,0.8566097,41.53595,-28.60866,-33.6864,1001.453
2.247390747,-0.9503462,-0.3875062,-0.5759133,-0.4646892,0.1021115,0.8509241,41.53595,-28.60866,-33.6864,1001.453
2.249887466,-0.5782752,-0.5660624,-0.5757324,-0.4622355,0.1017303,0.8547466,41.53595,-28.60866,-33.6864,1001.453
2.252384663,-0.5161314,-0.4467659,-0.5143513,-0.4681542,0.1050271,0.8566373,41.53595,-28.60866,-33.6864,1001.453
2.254882336,-0.5159692,-0.2083884,-0.4529895,-0.4760936,0.1115823,0.8513409,41.53595,-28.60866,-33.6864,1001.453
2.257378578,-0.7636555,-0.5061194,-0.4528472,-0.4755748,0.1102013,0.8561271,41.53595,-28.60866,-33.6864,1001.453
2.259876251,-1.568923,-0.7441976,-0.5751053,-0.4671125,0.1011013,0.8518881,41.53595,-28.60866,-33.6864,1001.453
2.262373447,-1.630392,-0.6844045,-0.5137244,-0.4626772,0.09933837,0.8581076,41.53595,-28.60866,-33.6864,1001.453
2.264870644,-0.8243726,-0.5650709,-0.513563,-0.4694898,0.0977032,0.855735,41.53595,-28.60866,-33.6864,1001.453
2.267367363,-0.5143031,-0.4457748,-0.3910013,-0.4792063,0.09393498,0.843826,41.53595,-28.60866,-33.6864,1001.453
2.269864559,-0.7000278,-0.5647534,-0.3908785,-0.470875,0.09271564,0.8481288,41.53595,-28.60866,-33.6864,1001.453
2.272362232,-0.4519596,-0.4454573,-0.3907557,-0.467609,0.1015825,0.8523626,41.53595,-28.60866,-33.6864,1001.453
2.274858475,-0.2039693,-0.3857581,-0.2682325,-0.47173,0.1136696,0.8551447,41.53595,-28.60866,-33.6864,1001.456
2.277356148,-0.1419431,-0.3260776,-0.2681482,-0.4672034,0.1071181,0.8661751,41.9033,-28.60924,-34.13363,1001.456
2.279853344,-0.6995572,-0.5642123,-0.0232632,-0.470093,0.1045835,0.8628513,41.9033,-28.60924,-34.13363,1001.456
2.282350063,-1.133072,-0.3853572,-0.2680567,-0.4713983,0.09525405,0.8571866,41.9033,-28.60924,-34.13363,1001.456
2.284847260,-0.9468299,-0.7425919,-0.4515731,-0.4762706,0.09408177,0.8500329,41.9033,-28.60924,-34.13363,1001.456
2.287344456,-0.3269116,-0.5636807,-0.390231,-0.4660591,0.09673528,0.8504856,41.9033,-28.60924,-34.13363,1001.456
2.289841175,0.1688878,-0.3848258,-0.2065078,-0.4685608,0.1007004,0.8604897,41.9033,-28.60924,-34.13363,1001.456
2.292338371,-0.07901358,-0.1464677,-0.2676432,-0.4720041,0.1020957,0.8614371,41.9033,-28.60924,-34.13363,1001.456
2.294836044,-0.3268371,-0.3250996,-0.2675591,-0.4759446,0.1033516,0.8528325,41.9033,-28.60924,-34.13363,1001.456
2.297332287,-0.2647724,-0.6823532,-0.1450746,-0.4725053,0.1018983,0.8475866,41.9033,-28.60924,-34.13363,1001.456
2.299829960,-0.4505754,-0.5630202,-0.145029,-0.4724931,0.1014646,0.851411,41.9033,-28.60924,-34.13363,1001.456
2.302329063,-0.5123959,-0.5032841,-0.1449835,-0.4710259,0.1015283,0.853798,41.9033,-28.60924,-34.13363,1001.456
2.304823875,-0.3883108,-0.6818038,-0.02253751,-0.4690689,0.1010141,0.8485461,41.9033,-28.60924,-34.13363,1001.456
2.307321072,-0.01641629,-0.6220303,-0.08373064,-0.4651141,0.09874256,0.8538144,41.9033,-28.60924,-34.13363,1001.456
2.309818268,0.1694751,-0.3835977,-0.08370433,-0.4652074,0.104113,0.8561645,41.9033,-28.60924,-34.13363,1001.456
2.312315941,-0.2023506,-0.5621551,-0.08367804,-0.4681406,0.1046126,0.8618945,41.9033,-28.60924,-34.13363,1001.456
2.314815521,-0.5120975,-0.8002157,-0.2672524,-0.4670551,0.0982668,0.8576402,41.9033,-28.60924,-34.13363,1001.458
2.317309856,-0.3260504,-0.5617271,-0.08356778,-0.4705777,0.1034027,0.8480523,41.9033,-28.60924,-34.13363,1001.458
2.319807053,-0.2020238,-0.442432,-0.2059419,-0.4715221,0.102016,0.8547501,41.9033,-28.60924,-34.13363,1001.458
2.322303772,-0.5117707,-0.620971,-0.144677,-0.4637129,0.1027402,0.8599946,41.9033,-28.60924,-34.13363,1001.458
2.324800968,-0.3876858,-0.442098,-0.2058318,-0.4686213,0.1034898,0.8513942,41.9033,-28.60924,-34.13363,1001.458
2.327298164,-0.2636398,-0.2632812,-0.08336672,-0.4647026,0.1031401,0.8552157,41.89714,-28.23185,-33.69359,1001.458
2.329794884,-0.3255191,-0.3823171,-0.2057409,-0.4642386,0.1046322,0.8571155,41.89714,-28.23185,-33.69359,1001.458
2.332292080,-0.3873789,-0.4417563,-0.08327589,-0.4671292,0.1026925,0.8619077,41.89714,-28.23185,-33.69359,1001.458
2.334789753,-0.3252951,-0.4416175,-0.08324973,-0.4671836,0.105572,0.8594989,41.89714,-28.23185,-33.69359,1001.458
2.337285996,-0.4491171,-0.3819195,-0.3280244,-0.4700653,0.1025392,0.8552231,41.89714,-28.23185,-33.69359,1001.458
2.339783669,-0.6348622,-0.5009181,-0.3279213,-0.4710638,0.1034244,0.8504409,41.89714,-28.23185,-33.69359,1001.458
2.342280865,-0.5107386,-0.3220828,-0.2054179,-0.4677006,0.1069788,0.8566231,41.89714,-28.23185,-33.69359,1001.458
2.344777584,-0.4486161,-0.08374442,-0.3277538,-0.4740024,0.1050685,0.8690597,41.89714,-28.23185,-33.69359,1001.458
2.347274780,-0.8822098,-0.3815146,-0.2664506,-0.4690409,0.1001982,0.8600159,41.89714,-28.23185,-33.69359,1001.458
2.349771977,-0.8819327,-0.5600727,-0.2051667,-0.4681139,0.1025555,0.8533112,41.89714,-28.23185,-33.69359,1001.458
2.352268696,-0.509883,-0.3216595,-0.3887028,-0.4666427,0.1026772,0.8599969,41.89714,-28.23185,-33.69359,1001.458
2.354765892,-0.8195333,-0.1428806,-0.2661803,-0.468125,0.1036163,0.859991,41.89714,-28.23185,-33.69359,1001.458
2.357263565,-0.9431999,-0.3215136,-0.2660967,-0.4651927,0.1031038,0.8533056,41.89714,-28.23185,-33.69359,1001.456
2.359760761,-0.8189795,-0.4405311,-0.2660131,-0.4642196,0.1030733,0.849484,41.89714,-28.23185,-33.69359,1001.456
2.362257481,-0.5708739,-0.4403927,-0.38833,-0.4682103,0.1078809,0.852318,41.89714,-28.23185,-33.69359,1001.456
2.364754677,-0.7565808,-0.3806951,-0.4494081,-0.4700909,0.1040016,0.8556904,41.89714,-28.23185,-33.69359,1001.456
2.367251873,-1.190078,-0.3210162,-0.3880668,-0.4724283,0.09812549,0.8557338,41.89714,-28.23185,-33.69359,1001.456
2.369748592,-1.189704,-0.5591525,-0.2043442,-0.4695975,0.1034752,0.8518726,41.89714,-28.23185,-33.69359,1001.456
2.372245789,-0.8175575,-0.3207397,-0.4490809,-0.4637908,0.1065002,0.8508922,41.89714,-28.23185,-33.69359,1001.456
2.374742985,-0.5694523,-0.320639,-0.3877396,-0.4651344,0.1002822,0.8600131,41.89714,-28.23185,-33.69359,1001.456
2.377239704,-0.8790839,-0.3205382,-0.3876178,-0.4661019,0.09978236,0.8604949,41.90347,-28.60074,-33.68716,1001.456
2.379737377,-1.126656,-0.4395561,-0.4486962,-0.4685323,0.09866904,0.8538169,41.90347,-28.60074,-33.68716,1001.456
2.382234573,-1.126302,-0.4989773,-0.4485552,-0.4714755,0.0996346,0.8581107,41.90347,-28.60074,-33.68716,1001.456
2.384731293,-0.6922137,-0.4392613,-0.5096145,-0.4671494,0.1030102,0.8494861,41.90347,-28.60074,-33.68716,1001.456
2.387228489,-0.5061099,-0.2604454,-0.4482542,-0.4691909,0.1078019,0.8480201,41.90347,-28.60074,-33.68716,1001.456
2.389725685,-0.6918372,-0.3794822,-0.4481134,-0.4701978,0.1097865,0.8527832,41.90347,-28.60074,-33.68716,1001.456
2.392222405,-1.125355,-0.5580408,-0.4479726,-0.4724978,0.1020079,0.8557061,41.90347,-28.60074,-33.68716,1001.456
2.394719601,-1.620698,-0.7365434,-0.5090321,-0.469962,0.09670278,0.8543095,41.90347,-28.60074,-33.68716,1001.456
2.397217274,-1.310378,-0.6171934,-0.5700724,-0.4670322,0.09676581,0.8543073,41.90347,-28.60074,-33.68716,1001.457
2.399714470,-0.9381938,-0.6765588,-0.508693,-0.4626866,0.09920307,0.8480777,41.90347,-28.60074,-33.68716,1001.457
2.402211189,-0.5041645,-0.4976684,-0.447333,-0.4696082,0.1045425,0.8590299,41.90347,-28.60074,-33.68716,1001.457
2.404708386,-0.380082,-0.2592748,-0.3859923,-0.4701054,0.105625,0.8680981,41.90347,-28.60074,-33.68716,1001.457
2.407205582,-0.9376212,-0.3187527,-0.4470713,-0.464817,0.1100373,0.8628092,41.90347,-28.60074,-33.68716,1001.457
2.409702301,-1.247137,-0.4973304,-0.5693312,-0.4716077,0.1062741,0.8465995,41.90347,-28.60074,-33.68716,1001.457
2.412199497,-1.556556,-0.7949707,-0.6303526,-0.467145,0.1030747,0.8542624,41.90347,-28.60074,-33.68716,1001.457
2.414696694,-1.618029,-0.4969244,-0.7525549,-0.4602239,0.09895069,0.8614526,41.90347,-28.60074,-33.68716,1001.457
2.417193413,-1.183786,-0.1989718,-0.6911183,-0.4684443,0.09322123,0.8457354,41.90347,-28.60074,-33.68716,1001.457
2.419691086,-0.8116416,-0.6753837,-0.5685008,-0.4632123,0.1010951,0.8451985,41.90347,-28.60074,-33.68716,1001.457
2.422188282,-0.5015761,-0.4964936,-0.813123,-0.4592711,0.1004598,0.8638296,41.90347,-28.60074,-33.68716,1001.457
2.424685001,-0.4394565,-0.01986326,-0.6904671,-0.4646587,0.10072,0.8557107,41.90347,-28.60074,-33.68716,1001.457
2.427186012,-0.6252047,-0.3772128,-0.62905,-0.4643737,0.1118408,0.8518098,41.90347,-28.60074,-33.68716,1001.457
2.429679394,-0.9967808,-0.4366536,-0.6900526,-0.4545216,0.1084069,0.8695021,41.90347,-28.60074,-33.68716,1001.457
2.432176113,-1.244316,-0.4365164,-0.8122362,-0.453441,0.1019902,0.859994,41.90347,-28.60074,-33.68716,1001.457
2.434673309,-1.120001,-0.1981421,-0.811981,-0.457917,0.1062182,0.8566228,41.90347,-28.60074,-33.68716,1001.457
2.437170506,-0.6859144,0.09971665,-0.8117259,-0.4691121,0.1040548,0.8580778,41.90347,-28.60074,-33.68716,1001.453
2.439668179,-0.6237369,-0.1981112,-0.8726711,-0.4686053,0.1024999,0.8499683,41.90347,-28.60074,-33.68716,1001.453
2.442164898,-1.119238,-0.3171676,-0.9947973,-0.4521557,0.1122516,0.8627861,41.90347,-28.60074,-33.68716,1001.453
2.444662094,-1.056924,0.2785251,-0.9944848,-0.4612843,0.1038278,0.8647621,41.90347,-28.60074,-33.68716,1001.453
2.447159290,-0.9946298,0.4571155,-1.055373,-0.4777355,0.09405025,0.850034,41.90347,-28.60074,-33.68716,1001.453
2.449656010,-0.808431,-0.2577397,-0.9938409,-0.47598,0.1046721,0.8427922,41.90347,-28.60074,-33.68716,1001.453
2.452153206,-0.6222908,-0.317218,-0.9935287,-0.4592963,0.1019286,0.8647745,41.90347,-28.60074,-33.68716,1001.453
2.454650402,-1.05583,-0.01932187,-1.054417,-0.4596717,0.09560923,0.8648198,41.90347,-28.60074,-33.68716,1001.453
2.457147122,-1.11746,0.1593621,-0.9928852,-0.4666125,0.1006716,0.8552344,41.90347,-28.60074,-33.68716,1001.453
2.459644318,-0.7453368,0.3379899,-1.053774,-0.4754229,0.1014016,0.8514131,41.90347,-28.60074,-33.68716,1001.453
2.462141991,-0.5592163,0.09964655,-0.9310421,-0.4759726,0.1041675,0.8413628,41.90347,-28.60074,-33.68716,1001.453
2.464643955,-1.054737,-0.3172999,-0.9919498,-0.4538772,0.09906792,0.8600151,41.90347,-28.60074,-33.68716,1001.453
2.467135906,-1.054406,-0.07896297,-0.9916382,-0.4626312,0.09695055,0.8609906,41.90347,-28.60074,-33.68716,1001.453
2.469633103,-0.4344538,0.3379769,-0.8689262,-0.4773755,0.1007583,0.8428209,41.90347,-28.60074,-33.68716,1001.453
2.472129822,-0.2484311,0.04007426,-0.807453,-0.4686469,0.1049521,0.8518615,41.90347,-28.60074,-33.68716,1001.453
2.474627018,-0.3103151,-0.07905693,-0.8683996,-0.4671379,0.1031778,0.8619042,41.90347,-28.60074,-33.68716,1001.453
2.477124214,-0.3721797,-0.0194728,-0.9905272,-0.4730016,0.1029937,0.85761,41.89714,-28.23185,-33.69359,1001.452
2.479620934,-0.4340249,0.04009262,-0.9290158,-0.4730335,0.1043658,0.8513906,41.89714,-28.23185,-33.69359,1001.452
2.482118607,-0.5578128,-0.1385979,-0.8675237,-0.4685274,0.09873991,0.8590707,41.89714,-28.23185,-33.69359,1001.452
2.484615803,-0.5576375,-0.07899503,-0.8672512,-0.4645781,0.09577686,0.8490586,41.89714,-28.23185,-33.69359,1001.452
2.487112999,-0.6194243,-0.01941092,-0.8057785,-0.4699821,0.09763471,0.8514369,41.89714,-28.23185,-33.69359,1001.452
2.489609718,-0.3713814,0.04015448,-0.8667256,-0.4720081,0.1020377,0.8571386,41.89714,-28.23185,-33.69359,1001.452
2.492106915,-0.2473406,-0.138536,-0.7440529,-0.4719135,0.09668654,0.8562214,41.89714,-28.23185,-33.69359,1001.452
2.494604111,-0.1853008,-0.07893321,-0.8662195,-0.4676329,0.1030706,0.8547403,41.89714,-28.23185,-33.69359,1001.452
2.497100830,-0.1852426,-0.3767049,-0.8047472,-0.4691664,0.1069344,0.855669,41.89714,-28.23185,-33.69359,1001.452
2.499598026,-0.06126021,-0.1979087,-0.8656946,-0.4709763,0.09919202,0.8605019,41.89714,-28.23185,-33.69359,1001.452
2.502095699,-0.5569377,-0.3169651,-0.9266228,-0.4713996,0.09523472,0.8557538,41.89714,-28.23185,-33.69359,1001.452
2.504592419,-0.5567627,-0.3764248,-0.9875319,-0.4680531,0.09915839,0.8533354,41.89714,-28.23185,-33.69359,1001.452
2.507089615,-0.1848153,-0.07851006,-0.8036211,-0.4622212,0.1007146,0.8514103,41.89714,-28.23185,-33.69359,1001.452
2.509586811,0.001129068,-0.0189261,-0.925769,-0.4613127,0.1046373,0.8528147,41.89714,-28.23185,-33.69359,1001.452
2.512083531,-0.2467197,-0.01892015,-1.047879,-0.4642433,0.1051755,0.8614106,41.89714,-28.23185,-33.69359,1001.452
2.514580727,-0.6184146,-0.1380328,-0.9863492,-0.4728315,0.09323623,0.8538582,41.89714,-28.23185,-33.69359,1001.452
2.517077923,-0.6182204,-0.257108,-0.9860393,-0.4631535,0.09827995,0.8523836,41.89714,-28.23185,-33.69359,1001.452
2.519575596,-0.3082157,-0.3165866,-0.8633291,-0.4622755,0.1035941,0.8490014,41.89714,-28.23185,-33.69359,1001.452
2.522071839,-0.1841947,0.100428,-1.046659,-0.4672114,0.1070021,0.857578,41.89714,-28.23185,-33.69359,1001.452
2.524569512,-0.1221748,-0.07828146,-1.10753,-0.4657699,0.1085282,0.8604323,41.89714,-28.23185,-33.69359,1001.452
2.527066708,-0.4939089,-0.3164941,-1.168382,-0.4715477,0.1034783,0.8552173,41.90347,-28.60074,-33.68716,1001.452
2.529563427,-0.4937537,-0.07815744,-1.168015,-0.4665786,0.0987175,0.8542931,41.90347,-28.60074,-33.68716,1001.452
2.532060623,-0.6175228,-0.1376922,-1.045248,-0.4636605,0.09922072,0.8509442,41.90347,-28.60074,-33.68716,1001.452
2.534557819,-0.3694805,0.04102898,-1.044919,-0.4647001,0.1025646,0.8485326,41.90347,-28.60074,-33.68716,1001.452
2.537054539,0.06437024,0.2792533,-1.044591,-0.4681489,0.1051044,0.8623687,41.90347,-28.60074,-33.68716,1001.452
2.539551735,-0.3693846,0.1004877,-1.289064,-0.4710453,0.1030808,0.8609519,41.90347,-28.60074,-33.68716,1001.452
2.542049408,-0.6790789,-0.01866251,-1.288659,-0.4720633,0.1049044,0.8537745,41.90347,-28.60074,-33.68716,1001.452
2.544545651,-0.8647519,0.04090265,-1.227054,-0.4680235,0.09775405,0.8571668,41.90347,-28.60074,-33.68716,1001.452
2.547043324,-0.8025181,0.1004491,-1.104268,-0.4645659,0.09534311,0.852883,41.90347,-28.60074,-33.68716,1001.452
2.549540520,-0.3685314,-0.01870105,-1.103921,-0.4659075,0.08854321,0.8548429,41.90347,-28.60074,-33.68716,1001.452
2.552037239,-0.1825294,-0.07825448,-1.103574,-0.4669966,0.09483751,0.8552763,41.90347,-28.60074,-33.68716,1001.452
2.554534435,-0.05854787,0.2791259,-1.164428,-0.4743633,0.09712576,0.8566973,41.90347,-28.60074,-33.68716,1001.452
2.557031632,-0.2444158,0.3385975,-1.164062,-0.4733871,0.09714032,0.856219,41.90347,-28.60074,-33.68716,1001.455
2.559528351,-0.3682631,0.04069464,-1.102496,-0.469524,0.09965084,0.8561988,41.90347,-28.60074,-33.68716,1001.455
2.562025547,-0.4920716,-0.01887744,-1.22455,-0.4723858,0.09568612,0.8547958,41.90347,-28.60074,-33.68716,1001.455
2.564526558,-0.2440687,0.1002471,-0.9793644,-0.4694819,0.09720503,0.8547832,41.90347,-28.60074,-33.68716,1001.455
2.567020416,0.1897426,0.2193342,-0.8566564,-0.4709169,0.09577562,0.8590933,41.90347,-28.60074,-33.68716,1001.455
2.569517136,0.06575884,0.2192653,-0.9175874,-0.4739224,0.09950476,0.8523811,41.90347,-28.60074,-33.68716,1001.455
2.572014332,0.1277003,0.1596371,-1.0397,-0.4700128,0.09963389,0.8557215,41.90347,-28.60074,-33.68716,1001.455
2.574511528,-0.05822612,0.2191463,-0.9781727,-0.4714824,0.1001457,0.8600178,41.90347,-28.60074,-33.68716,1001.455
2.577008248,0.003754258,0.1595181,-0.855465,-0.471917,0.096635,0.8524004,41.89714,-28.23185,-33.69359,1001.455
2.579505444,0.003753081,0.04034939,-0.793996,-0.4699104,0.09378456,0.8538526,41.89714,-28.23185,-33.69359,1001.455
2.582003117,0.1896382,-0.01922258,-0.8549469,-0.4680435,0.09868598,0.8542942,41.89714,-28.23185,-33.69359,1001.455
2.584499359,0.003692329,0.09990206,-0.6710776,-0.4724243,0.09818348,0.8600323,41.89714,-28.23185,-33.69359,1001.455
2.586997032,-0.2441572,0.04031137,-0.8544674,-0.4729146,0.09753302,0.8485733,41.89714,-28.23185,-33.69359,1001.455
2.589497090,-0.2440805,0.0402987,-0.854199,-0.466516,0.0953462,0.8562278,41.89714,-28.23185,-33.69359,1001.455
2.591990948,-0.1200796,0.04028605,-0.5479296,-0.4685123,0.0977371,0.8566895,41.89714,-28.23185,-33.69359,1001.455
2.594488144,0.003882274,0.159392,-0.6089576,-0.4714183,0.09618598,0.854314,41.89714,-28.23185,-33.69359,1001.455
2.596985340,0.003881052,0.2189012,-0.6699666,-0.4709247,0.09627381,0.8600451,41.89714,-28.23185,-33.69359,1001.454
2.599482060,0.2517282,-0.01940475,-0.5473557,-0.4715212,0.1020289,0.8557054,41.89714,-28.23185,-33.69359,1001.454
2.601979256,0.1277249,-0.1980766,-0.608384,-0.4719525,0.09917746,0.8609803,41.89714,-28.23185,-33.69359,1001.454
2.604476929,0.1276848,0.09978217,-0.6081928,-0.4713722,0.09379815,0.857197,41.89714,-28.23185,-33.69359,1001.454
2.606974125,0.2515689,-0.1384864,-0.5468015,-0.4699716,0.09717519,0.8533508,41.89714,-28.23185,-33.69359,1001.454
2.609470844,0.2514898,-0.01932427,-0.4854296,-0.4675383,0.09771945,0.8538231,41.89714,-28.23185,-33.69359,1001.454
2.611968041,0.1274866,-0.0193182,-0.5464773,-0.4676064,0.1016212,0.8552282,41.89714,-28.23185,-33.69359,1001.454
2.614465237,0.5611812,-0.19799,-0.7299061,-0.4661993,0.1044807,0.8489974,41.89714,-28.23185,-33.69359,1001.454
2.616961956,0.4990428,-0.2574871,-0.5460762,-0.4685292,0.09871414,0.8571602,41.89714,-28.23185,-33.69359,1001.454
2.619459152,0.2510377,-0.07872834,-0.5459047,-0.4685439,0.0997234,0.860019,41.89714,-28.23185,-33.69359,1001.454
2.621956825,0.2509588,-0.3169408,-0.484533,-0.4690805,0.1020685,0.8547482,41.89714,-28.23185,-33.69359,1001.454
2.624453068,-0.05893047,-0.1977226,-0.545581,-0.4743955,0.09849145,0.8500003,41.89714,-28.23185,-33.69359,1001.454
2.626950741,-0.05891196,-0.1976605,-0.6066098,-0.4631413,0.0978462,0.856208,41.9033,-28.60924,-34.13363,1001.454
2.629447937,0.4368033,-0.1975984,-0.545219,-0.4656024,0.09873205,0.8538148,41.9033,-28.60924,-34.13363,1001.454
2.631944657,0.4366661,-0.07841775,-0.6062479,-0.4622025,0.0997633,0.85285,41.9033,-28.60924,-34.13363,1001.454
2.634441853,0.1267184,-0.01883381,-0.6060575,-0.461671,0.09795503,0.8619382,41.9033,-28.60924,-34.13363,1001.454
2.636939049,-0.05920766,-0.0188279,-0.7282675,-0.4602143,0.09847829,0.8624113,41.9033,-28.60924,-34.13363,1001.452
2.639435768,0.06473512,0.1002966,-0.7280387,-0.4612083,0.09942788,0.8624051,41.9033,-28.60924,-34.13363,1001.452
2.641932964,0.188639,0.2193837,-0.6054096,-0.4616804,0.09781972,0.8519083,41.9033,-28.60924,-34.13363,1001.452
2.644430638,0.6223143,0.3384334,-0.6052194,-0.4685423,0.09913501,0.8523806,41.9033,-28.60924,-34.13363,1001.452
2.646927834,0.9938914,0.1000899,-0.6662294,-0.467602,0.1016856,0.8600045,41.9033,-28.60924,-34.13363,1001.452
2.649424553,0.4359203,0.1000584,-0.5436197,-0.4700444,0.1016202,0.859051,41.9033,-28.60924,-34.13363,1001.452
2.651921749,0.2498971,0.2191456,-0.5434489,-0.4699507,0.09625615,0.8571786,41.9033,-28.60924,-34.13363,1001.452
2.654418945,0.06393232,0.3381954,-0.6656786,-0.4713954,0.09468498,0.8509811,41.9033,-28.60924,-34.13363,1001.452
2.656915665,0.06391224,0.3976484,-0.6654695,-0.4679111,0.09143874,0.8567341,41.9033,-28.60924,-34.13363,1001.452
2.659412861,0.4356647,0.2784049,-0.6652604,-0.464472,0.09059323,0.8605595,41.9033,-28.60924,-34.13363,1001.452
2.661910534,0.4974899,0.2783174,-0.4814508,-0.4729295,0.09915,0.8605034,41.9033,-28.60924,-34.13363,1001.452
2.664406777,0.745182,0.3973486,-0.4812995,-0.4749375,0.1019811,0.8576183,41.9033,-28.60924,-34.13363,1001.452
2.666904450,0.5590616,0.3972237,-0.5423486,-0.4685167,0.09767267,0.8519133,41.9033,-28.60924,-34.13363,1001.452
2.669401646,0.3110376,0.218421,-0.2973774,-0.4670447,0.09780727,0.8595542,41.9033,-28.60924,-34.13363,1001.452
2.671898365,0.1870157,0.1587931,-0.3584841,-0.4695541,0.1010487,0.8518898,41.9033,-28.60924,-34.13363,1001.452
2.674395561,0.2489191,0.2778618,-0.6031724,-0.4655884,0.09832408,0.8595496,41.9033,-28.60924,-34.13363,1001.452
2.676893711,0.0009924993,0.4564525,-0.5417826,-0.4665134,0.09538486,0.8590935,42.27099,-28.59282,-33.68793,1001.453
2.679389477,-0.0609699,0.634987,-0.5416124,-0.4694503,0.09521874,0.8514537,42.27099,-28.59282,-33.68793,1001.453
2.681886673,0.06297343,0.5156689,-0.2966415,-0.4739071,0.09911612,0.8595489,42.27099,-28.59282,-33.68793,1001.453
2.684384346,0.0009915605,0.336829,-0.2965483,-0.4752778,0.09372701,0.8581551,42.27099,-28.59282,-33.68793,1001.453
