Time (s),Gyroscope X (deg/s),Gyroscope Y (deg/s),Gyroscope Z (deg/s),Accelerometer X (g),Accelerometer Y (g),Accelerometer Z (g),Magnetometer X (uT),Magnetometer Y (uT),Magnetometer Z (uT),Barometer (hPa)
0.000000000,-0.1841998,0.1245899,0.106622,-0.4941604,0.1377473,0.8401785,2.727694,18.76908,-41.14589,1001.479
0.002497196,-0.3700861,0.06503063,-0.1381788,-0.495638,0.1381431,0.8358776,2.727694,18.76908,-41.14589,1001.479
0.004994392,-0.2461619,0.06503063,-0.07697859,-0.4893018,0.1387198,0.8325261,2.727694,18.76908,-41.14589,1001.479
0.007491112,-0.06027564,0.1245899,-0.199379,-0.4897323,0.1358813,0.8387562,2.727694,18.76908,-41.14589,1001.479
0.009988308,-0.1841998,0.06503063,-0.1381788,-0.4922477,0.1396467,0.8339542,2.727694,18.76908,-41.14589,1001.479
0.012485504,-0.1841998,0.1245899,-0.199379,-0.4931627,0.1362415,0.8349344,2.727694,18.76908,-41.14589,1001.479
0.014983177,-0.308124,0.1841492,-0.1381788,-0.4911976,0.1358434,0.8382797,2.727694,18.76908,-41.14589,1001.479
0.017480373,-0.308124,0.06503063,-0.01577839,-0.4902684,0.1382328,0.8339631,2.727694,18.76908,-41.14589,1001.479
0.019977570,0.06364854,0.06503063,-0.07697859,-0.4961568,0.139524,0.8310913,2.727694,18.76908,-41.14589,1001.479
0.022474766,-0.06027564,0.06503063,-0.199379,-0.4912599,0.1386069,0.8272737,2.727694,18.76908,-41.14589,1001.479
0.024971485,-0.1841998,0.06503063,-0.3217794,-0.4922477,0.1396467,0.8339542,2.727694,18.76908,-41.14589,1001.479
0.027469158,-0.1841998,0.005471334,-0.01577839,-0.4902497,0.1372816,0.8354029,2.727694,18.76908,-41.14589,1001.479
0.029966354,-0.308124,0.005471334,-0.07697859,-0.49116,0.1333331,0.832088,2.727694,18.76908,-41.14589,1001.479
0.032463551,-0.1222377,-0.05408797,-0.01577839,-0.4971769,0.1419295,0.8310748,2.727694,18.76908,-41.14589,1001.479
0.034960747,-0.06027564,-0.05408797,-0.01577839,-0.493756,0.1420417,0.833938,2.727694,18.76908,-41.14589,1001.479
0.037457943,-0.308124,0.06503063,-0.1381788,-0.4907059,0.1352912,0.8325514,2.727694,18.76908,-41.14589,1001.479
0.039957523,-0.3700861,-0.05408797,-0.1381788,-0.4922034,0.1372331,0.8349267,2.727694,18.76908,-41.14589,1001.479
0.042452335,-0.2461619,-0.05408797,-0.2605792,-0.490705,0.1353041,0.8335066,2.727694,18.76908,-41.14589,1001.479
0.044949532,-0.2461619,0.1841492,-0.2605792,-0.4913023,0.1416605,0.8377606,2.727694,18.76908,-41.14589,1001.479
0.047446728,-0.308124,0.06503063,-0.1381788,-0.4869544,0.1441299,0.8339191,2.727694,18.76908,-41.14589,1001.479
0.049943924,-0.2461619,0.1841492,-0.01577839,-0.4921422,0.1338425,0.8354286,2.727694,18.76908,-41.14589,1001.479
0.052441597,-0.1841998,0.1245899,-0.07697859,-0.4946601,0.1381834,0.8373097,2.727694,18.76908,-41.14589,1001.479
0.054938793,-0.1222377,0.06503063,-0.2605792,-0.4926986,0.1377337,0.8368341,2.727694,18.76908,-41.14589,1001.479
0.057435513,-0.2461619,0.1245899,-0.3217794,-0.491249,0.1381538,0.8296652,2.727694,18.76908,-41.14589,1001.479
0.059932709,-0.1841998,0.005471334,-0.1381788,-0.4887848,0.1373131,0.8354018,2.727694,18.76908,-41.14589,1001.479
0.062429905,-0.2461619,-0.1136473,-0.1381788,-0.4931435,0.1352967,0.8368517,2.727694,18.76908,-41.14589,1001.479
0.064927101,0.00168645,0.005471334,-0.199379,-0.4922515,0.1402029,0.8392046,2.727694,18.76908,-41.14589,1001.479
0.067424774,-0.06027564,0.1841492,-0.01577839,-0.4922864,0.1415299,0.8296418,2.727694,18.76908,-41.14589,1001.479
0.069921970,-0.2461619,-0.1732066,-0.199379,-0.4947171,0.1410243,0.8320352,2.727694,18.76908,-41.14589,1001.479
0.072418690,-0.3700861,-0.1732066,-0.199379,-0.4917372,0.1387575,0.8392146,2.727694,18.76908,-41.14589,1001.479
0.074915886,-0.06027564,0.1841492,-0.1381788,-0.4902789,0.1386924,0.8320492,2.727694,18.76908,-41.14589,1001.479
0.077413082,0.00168645,0.005471334,-0.199379,-0.4887979,0.137734,0.8306221,2.727694,18.76908,-41.14589,1001.479
0.079910278,-0.1222377,0.1841492,-0.01577839,-0.4913323,0.1430584,0.8334516,2.727694,18.76908,-41.14589,1001.479
0.082407951,0.00168645,0.005471334,-0.2605792,-0.4951459,0.1375974,0.8306268,2.727694,18.76908,-41.14589,1001.479
0.084905148,0.1256106,-0.05408797,-0.1381788,-0.4917104,0.1367003,0.8306313,2.727694,18.76908,-41.14589,1001.476
0.087401867,0.06364854,0.1841492,-0.199379,-0.4940694,0.1323446,0.8354404,2.727694,18.76908,-41.14589,1001.476
0.089899063,-0.1222377,0.1245899,-0.2605792,-0.4921339,0.1333507,0.8349544,2.360333,18.76966,-40.69865,1001.476
0.092396259,-0.06027564,0.06503063,-0.1381788,-0.4922508,0.1396016,0.8306109,2.360333,18.76966,-40.69865,1001.476
0.094893932,-0.06027564,0.005471334,-0.1381788,-0.4922521,0.1395823,0.829178,2.360333,18.76966,-40.69865,1001.476
0.097391129,-0.06027564,0.06503063,-0.1381788,-0.4932646,0.1420973,0.837281,2.360333,18.76966,-40.69865,1001.476
0.099888325,-0.1841998,0.06503063,-0.199379,-0.4923497,0.1455025,0.8363007,2.360333,18.76966,-40.69865,1001.476
0.102385044,0.00168645,0.005471334,-0.2605792,-0.4927169,0.1386914,0.835872,2.360333,18.76966,-40.69865,1001.476
0.104882240,-0.1841998,0.06503063,-0.1381788,-0.4903283,0.1416428,0.8348941,2.360333,18.76966,-40.69865,1001.476
0.107379437,0.1256106,0.1245899,-0.1381788,-0.4912684,0.1397064,0.8368191,2.360333,18.76966,-40.69865,1001.476
0.109877110,0.1256106,-0.1136473,-0.01577839,-0.4936449,0.1357071,0.8320725,2.360333,18.76966,-40.69865,1001.476
0.112374306,-0.06027564,0.005471334,-0.2605792,-0.4922764,0.1410639,0.8310781,2.360333,18.76966,-40.69865,1001.476
0.114871502,0.00168645,0.005471334,-0.2605792,-0.4932165,0.1391275,0.8330032,2.360333,18.76966,-40.69865,1001.476
0.117368698,0.2495348,-0.1732066,-0.1381788,-0.4912684,0.1397064,0.8368191,2.360333,18.76966,-40.69865,1001.476
0.119865418,0.1256106,-0.1136473,-0.199379,-0.4937117,0.1396281,0.8349105,2.360333,18.76966,-40.69865,1001.476
0.122362614,-0.1222377,-0.05408797,-0.1381788,-0.4912862,0.1406705,0.8363346,2.360333,18.76966,-40.69865,1001.476
0.124860287,-0.1222377,-0.05408797,-0.07697859,-0.4922076,0.1377829,0.8396994,2.360333,18.76966,-40.69865,1001.478
0.127360821,-0.1222377,-0.1136473,-0.199379,-0.4897961,0.1392333,0.8353887,2.360333,18.76966,-40.69865,1001.478
0.129854679,0.06364854,0.1245899,-0.2605792,-0.4892619,0.1362418,0.8287224,2.360333,18.76966,-40.69865,1001.478
0.132351875,0.1256106,0.06503063,-0.01577839,-0.4883735,0.1410964,0.8272542,2.360333,18.76966,-40.69865,1001.478
0.134848595,0.1256106,-0.1732066,-0.3829796,-0.4922858,0.1421505,0.8396683,2.360333,18.76966,-40.69865,1001.478
0.137346268,0.06364854,-0.05408797,-0.2605792,-0.487852,0.1397541,0.8349062,2.360333,18.76966,-40.69865,1001.478
0.139843464,-0.1222377,-0.1136473,-0.01577839,-0.489807,0.1396864,0.8329971,2.360169,18.76116,-41.14512,1001.478
0.142340660,0.06364854,-0.1732066,-0.1381788,-0.4932642,0.1421037,0.8377586,2.360169,18.76116,-41.14512,1001.478
0.144837856,0.06364854,-0.1732066,-0.07697859,-0.4873488,0.1393695,0.8415959,2.360169,18.76116,-41.14512,1001.478
0.147335529,-0.06027564,0.005471334,-0.4441798,-0.4872608,0.1339218,0.8335145,2.360169,18.76116,-41.14512,1001.478
0.149832726,0.1875727,-0.05408797,-0.199379,-0.4892862,0.1377235,0.8306225,2.360169,18.76116,-41.14512,1001.478
0.152329445,0.1256106,0.06503063,-0.1381788,-0.4872348,0.1324659,0.8335248,2.360169,18.76116,-41.14512,1001.478
0.154826641,0.1875727,0.1245899,-0.199379,-0.4931622,0.136248,0.835412,2.360169,18.76116,-41.14512,1001.478
0.157323837,0.3114969,0.1841492,-0.199379,-0.4970821,0.1371925,0.8397065,2.360169,18.76116,-41.14512,1001.478
0.159821034,0.4354211,0.06503063,-0.1381788,-0.4931419,0.1347083,0.8292133,2.360169,18.76116,-41.14512,1001.478
0.162318707,0.373459,0.06503063,-0.07697859,-0.491762,0.1396186,0.8310881,2.360169,18.76116,-41.14512,1001.478
0.164815903,0.4354211,0.2437085,-0.1381788,-0.4960883,0.1356288,0.8301638,2.360169,18.76116,-41.14512,1001.48
0.167312622,0.6832694,-0.05408797,-0.07697859,-0.4926414,0.1342851,0.8330374,2.360169,18.76116,-41.14512,1001.48
0.169809818,0.5593452,0.005471334,-0.1381788,-0.4931571,0.1357111,0.8315945,2.360169,18.76116,-41.14512,1001.48
0.172307014,0.4354211,-0.05408797,-0.07697859,-0.4946296,0.136792,0.8420963,2.360169,18.76116,-41.14512,1001.48
0.174804210,0.4973832,-0.1732066,-0.07697859,-0.4936703,0.1377836,0.8420886,2.360169,18.76116,-41.14512,1001.48
0.177301884,0.7452316,-0.05408797,-0.1381788,-0.4995399,0.1375158,0.8315854,2.360169,18.76116,-41.14512,1001.48
0.179800510,0.6832694,0.3628271,-0.2605792,-0.4947209,0.1415805,0.8372855,2.360169,18.76116,-41.14512,1001.48
0.182296276,0.5593452,0.1841492,-0.07697859,-0.4883455,0.1402805,0.838724,2.360169,18.76116,-41.14512,1001.48
0.184792995,0.7452316,0.1245899,-0.01577839,-0.4883334,0.1392326,0.8329995,2.360169,18.76116,-41.14512,1001.48
0.187290191,0.7452316,0.1245899,-0.1381788,-0.4922052,0.1372073,0.8330163,2.360169,18.76116,-41.14512,1001.48
0.189787864,0.8071936,0.005471334,-0.2605792,-0.4921509,0.1343278,0.8354251,2.727551,18.7618,-41.52857,1001.48
0.192285061,0.8071936,0.1245899,-0.2605792,-0.4941314,0.1357223,0.8339833,2.727551,18.7618,-41.52857,1001.48
0.194782257,0.8691557,0.4223864,-0.01577839,-0.4917985,0.141534,0.8291638,2.727551,18.7618,-41.52857,1001.48
0.197279453,0.9930799,0.06503063,-0.07697859,-0.4902375,0.1368478,0.8392273,2.727551,18.7618,-41.52857,1001.48
0.199776172,1.117004,0.1245899,-0.1381788,-0.4892887,0.138299,0.8373057,2.727551,18.7618,-41.52857,1001.48
0.202273369,0.9930799,0.1841492,-0.199379,-0.4941535,0.1372362,0.8382715,2.727551,18.7618,-41.52857,1001.48
0.204771042,0.9311178,0.2437085,-0.199379,-0.4912067,0.1363222,0.8377987,2.727551,18.7618,-41.52857,1001.48
0.207268238,0.7452316,0.3032678,-0.01577839,-0.4917186,0.1371921,0.8311054,2.727551,18.7618,-41.52857,1001.479
0.209765434,0.6832694,0.2437085,0.04542181,-0.4946603,0.1375693,0.8277608,2.727551,18.7618,-41.52857,1001.479
0.212262630,0.7452316,0.1245899,-0.07697859,-0.4908266,0.1420983,0.8334582,2.727551,18.7618,-41.52857,1001.479
0.214759350,0.7452316,0.005471334,-0.1381788,-0.4897943,0.1392591,0.8372992,2.727551,18.7618,-41.52857,1001.479
0.217256546,0.8071936,-0.1136473,-0.2605792,-0.4902372,0.1362401,0.830156,2.727551,18.7618,-41.52857,1001.479
0.219754219,0.6213074,0.005471334,-0.199379,-0.494247,0.1419925,0.8310726,2.727551,18.7618,-41.52857,1001.479
0.222251415,0.4354211,0.1245899,-0.07697859,-0.494645,0.1371806,0.8349285,2.727551,18.7618,-41.52857,1001.479
0.224748611,0.4354211,0.2437085,-0.199379,-0.4882019,0.1319724,0.8344842,2.727551,18.7618,-41.52857,1001.479
0.227245807,0.6832694,0.005471334,-0.199379,-0.4935859,0.1322842,0.8301862,2.727551,18.7618,-41.52857,1001.479
0.229743481,0.5593452,-0.05408797,-0.2605792,-0.4946845,0.1390509,0.8296609,2.727551,18.7618,-41.52857,1001.479
0.232240200,0.4354211,0.1245899,-0.3829796,-0.491266,0.1391309,0.830136,2.727551,18.7618,-41.52857,1001.479
0.234737396,0.3114969,0.06503063,-0.07697859,-0.4878155,0.1378387,0.8368304,2.727551,18.7618,-41.52857,1001.479
0.237234592,0.1875727,0.1245899,-0.1381788,-0.494204,0.1395596,0.8306123,2.727551,18.7618,-41.52857,1001.479
0.239731788,0.373459,-0.05408797,-0.07697859,-0.4933759,0.1478178,0.8295976,2.721535,19.14647,-40.70584,1001.479
0.242229461,0.2495348,0.2437085,-0.01577839,-0.4927558,0.1411823,0.8406309,2.721535,19.14647,-40.70584,1001.479
0.244726658,0.1256106,-0.1136473,-0.2605792,-0.4874278,0.1437243,0.8406096,2.721535,19.14647,-40.70584,1001.479
0.247223377,0.1875727,-0.1136473,-0.199379,-0.4879337,0.1440703,0.8310541,2.721535,19.14647,-40.70584,1001.479
0.249720573,0.06364854,0.1841492,-0.2605792,-0.4936992,0.1385866,0.8296636,2.721535,19.14647,-40.70584,1001.479
0.252217769,0.00168645,-0.05408797,-0.199379,-0.4917082,0.1367325,0.8330194,2.721535,19.14647,-40.70584,1001.479
0.254714966,0.06364854,0.005471334,-0.2605792,-0.4902911,0.1391261,0.8282248,2.721535,19.14647,-40.70584,1001.479
0.257212639,0.00168645,0.2437085,-0.2605792,-0.4892996,0.138752,0.8349141,2.721535,19.14647,-40.70584,1001.479
0.259709835,0.2495348,0.06503063,-0.3217794,-0.491643,0.1333999,0.8378198,2.721535,19.14647,-40.70584,1001.479
0.262206554,0.1875727,0.06503063,-0.3217794,-0.4903448,0.1426263,0.8358425,2.721535,19.14647,-40.70584,1001.479
0.264703750,0.1875727,0.06503063,-0.3829796,-0.49421,0.1400836,0.8334746,2.721535,19.14647,-40.70584,1001.479
0.267200947,0.3114969,0.1245899,-0.2605792,-0.4908565,0.1441103,0.8386981,2.721535,19.14647,-40.70584,1001.479
0.269698143,0.4354211,0.1245899,-0.2605792,-0.4893325,0.140719,0.8368108,2.721535,19.14647,-40.70584,1001.479
0.272195816,0.6213074,0.06503063,-0.2605792,-0.4926948,0.1371775,0.8315838,2.721535,19.14647,-40.70584,1001.479
0.274693012,0.4973832,0.005471334,-0.199379,-0.4922599,0.1400805,0.8301299,2.721535,19.14647,-40.70584,1001.479
0.277189731,0.4973832,-0.05408797,-0.3217794,-0.4927759,0.1421143,0.8377582,2.721535,19.14647,-40.70584,1001.479
0.279686928,0.5593452,-0.05408797,-0.2605792,-0.4966204,0.1380383,0.8296692,2.721535,19.14647,-40.70584,1001.479
0.282184124,0.7452316,0.06503063,-0.2605792,-0.4903118,0.1406593,0.8339458,2.721535,19.14647,-40.70584,1001.479
0.284681797,0.4354211,0.1245899,-0.1381788,-0.4922793,0.141633,0.8372837,2.721535,19.14647,-40.70584,1001.479
0.287178993,0.4354211,0.1841492,-0.2605792,-0.4917807,0.1405698,0.8296483,2.721535,19.14647,-40.70584,1001.481
0.289676189,0.5593452,0.005471334,-0.2605792,-0.4947295,0.1420658,0.8372821,2.7217,19.15496,-40.25938,1001.481
0.292173385,0.373459,0.06503063,-0.3829796,-0.49374,0.1410518,0.8325121,2.7217,19.15496,-40.25938,1001.481
0.294670105,0.4354211,0.1841492,-0.4441798,-0.4942065,0.1401351,0.8372955,2.7217,19.15496,-40.25938,1001.481
0.297167301,0.3114969,0.1245899,-0.4441798,-0.4921391,0.1338876,0.8387719,2.7217,19.15496,-40.25938,1001.481
0.299664974,0.1256106,-0.1136473,-0.3829796,-0.4936852,0.1381786,0.8353986,2.7217,19.15496,-40.25938,1001.481
0.302162170,0.1875727,-0.1136473,-0.5665802,-0.4922312,0.1386632,0.8330059,2.7217,19.15496,-40.25938,1001.481
0.304659366,0.3114969,0.1245899,-0.50538,-0.492137,0.1333057,0.8316111,2.7217,19.15496,-40.25938,1001.481
0.307156563,0.1875727,-0.05408797,-0.199379,-0.4902913,0.1397339,0.8372961,2.7217,19.15496,-40.25938,1001.481
0.309653282,0.3114969,-0.05408797,-0.199379,-0.4922976,0.1425907,0.8363215,2.7217,19.15496,-40.25938,1001.481
0.312150478,0.2495348,0.005471334,-0.3217794,-0.4898008,0.1397766,0.8396838,2.7217,19.15496,-40.25938,1001.481
0.314648151,0.1875727,0.1245899,-0.3829796,-0.4892136,0.1338862,0.8339935,2.7217,19.15496,-40.25938,1001.481
0.319642544,-0.06027564,-0.1732066,-0.2605792,-0.4864548,0.1436938,0.8367879,2.7217,19.15496,-40.25938,1001.481
0.319642544,-0.06027564,-0.1732066,-0.2605792,-0.4864548,0.1436938,0.8367879,2.7217,19.15496,-40.25938,1001.481
0.324637413,0.1875727,0.06503063,-0.4441798,-0.4907654,0.1387076,0.83396,2.7217,19.15496,-40.25938,1001.481
0.324637413,0.1875727,0.06503063,-0.4441798,-0.4907654,0.1387076,0.83396,2.7217,19.15496,-40.25938,1001.481
0.329631328,0.06364854,-0.1136473,-0.3217794,-0.4931684,0.1361578,0.8287253,2.7217,19.15496,-40.25938,1001.479
0.332128525,0.00168645,-0.1732066,-0.2605792,-0.4922682,0.1405722,0.830604,2.7217,19.15496,-40.25938,1001.479
0.334625721,-0.1841998,0.005471334,-0.2605792,-0.4898079,0.1396735,0.8320419,2.7217,19.15496,-40.25938,1001.479
0.334625721,-0.1841998,0.005471334,-0.2605792,-0.4898079,0.1396735,0.8320419,2.7217,19.15496,-40.25938,1001.479
0.337123394,-0.06027564,-0.1136473,-0.3217794,-0.4907712,0.1386239,0.8277509,2.7217,19.15496,-40.25938,1001.479
0.342117309,-0.1222377,0.06503063,-0.2605792,-0.4960843,0.1356868,0.8344623,1.992645,18.75324,-41.14436,1001.479
0.342117309,-0.1222377,0.06503063,-0.2605792,-0.4960843,0.1356868,0.8344623,1.992645,18.75324,-41.14436,1001.479
0.347111702,-0.3700861,0.06503063,-0.2605792,-0.4922724,0.1411219,0.8353767,1.992645,18.75324,-41.14436,1001.479
0.347111702,-0.3700861,0.06503063,-0.2605792,-0.4922724,0.1411219,0.8353767,1.992645,18.75324,-41.14436,1001.479
0.349608898,-0.3700861,0.06503063,-0.4441798,-0.4911184,0.1308808,0.8301948,1.992645,18.75324,-41.14436,1001.479
0.354603767,0.06364854,0.1245899,-0.1381788,-0.4965452,0.1342397,0.835906,1.992645,18.75324,-41.14436,1001.479
0.357100963,0.1875727,0.06503063,-0.2605792,-0.4921435,0.1338232,0.8339957,1.992645,18.75324,-41.14436,1001.479
0.359597683,0.1875727,0.2437085,-0.2605792,-0.4922847,0.1415557,0.8315523,1.992645,18.75324,-41.14436,1001.479
0.359597683,0.1875727,0.2437085,-0.2605792,-0.4922847,0.1415557,0.8315523,1.992645,18.75324,-41.14436,1001.479
0.362094879,0.2495348,0.005471334,-0.199379,-0.4868159,0.1363587,0.8334968,1.992645,18.75324,-41.14436,1001.479
0.364592075,0.373459,0.06503063,-0.2605792,-0.4922199,0.1382166,0.8358751,1.992645,18.75324,-41.14436,1001.479
0.369586944,0.1256106,-0.05408797,-0.3217794,-0.491697,0.1356718,0.8263397,1.992645,18.75324,-41.14436,1001.482
0.372084141,0.1875727,-0.1136473,-0.3217794,-0.4864891,0.1456414,0.8372517,1.992645,18.75324,-41.14436,1001.482
0.372084141,0.1875727,-0.1136473,-0.3217794,-0.4864891,0.1456414,0.8372517,1.992645,18.75324,-41.14436,1001.482
0.374580860,0.2495348,0.005471334,-0.199379,-0.4903488,0.1425683,0.8315439,1.992645,18.75324,-41.14436,1001.482
0.379575729,0.373459,0.1245899,-0.199379,-0.4947326,0.1420207,0.8339387,1.992645,18.75324,-41.14436,1001.482
0.382072925,0.2495348,0.1245899,-0.199379,-0.4923241,0.1440402,0.8358335,1.992645,18.75324,-41.14436,1001.482
0.384570122,0.3114969,0.06503063,-0.2605792,-0.4937012,0.1391686,0.8368244,1.992645,18.75324,-41.14436,1001.482
0.387067318,0.373459,0.1245899,-0.199379,-0.4937326,0.1405471,0.8310826,1.992645,18.75324,-41.14436,1001.482
0.389564037,0.373459,0.3032678,-0.1381788,-0.4922551,0.1401513,0.8353837,1.992645,18.75324,-41.14436,1001.482
0.392061233,0.5593452,0.005471334,-0.199379,-0.4951054,0.13574,0.8368497,1.992645,18.75324,-41.14436,1001.482
0.394558906,0.5593452,0.1245899,-0.2605792,-0.4927995,0.1429946,0.8310646,1.992645,18.75324,-41.14436,1001.482
0.397056103,0.4354211,0.1841492,-0.199379,-0.4908228,0.1415421,0.8282079,1.992645,18.75324,-41.14436,1001.482
0.399553299,0.4973832,0.005471334,-0.199379,-0.4903256,0.1416815,0.8377599,1.992645,18.75324,-41.14436,1001.482
0.399553299,0.4973832,0.005471334,-0.199379,-0.4903256,0.1416815,0.8377599,1.992645,18.75324,-41.14436,1001.482
0.404549122,0.4973832,0.06503063,-0.199379,-0.4892958,0.1381959,0.8296638,1.992645,18.75324,-41.14436,1001.482
0.407044411,0.4973832,0.005471334,-0.199379,-0.4955998,0.1362534,0.8397123,1.992645,18.75324,-41.14436,1001.48
0.409542084,0.3114969,0.06503063,-0.199379,-0.4936761,0.1376998,0.8358796,1.992645,18.75324,-41.14436,1001.48
0.412039280,0.1875727,0.005471334,-0.3217794,-0.496117,0.137046,0.8272877,1.992645,18.75324,-41.14436,1001.48
0.414536476,0.4354211,-0.1136473,-0.199379,-0.4907946,0.1401184,0.8306063,1.992645,18.75324,-41.14436,1001.48
0.417037010,0.1256106,-0.05408797,-0.3217794,-0.4864713,0.1446773,0.8377362,1.992645,18.75324,-41.14436,1001.48
0.419531345,-0.1222377,-0.05408797,-0.1381788,-0.488836,0.1402378,0.8363363,1.992645,18.75324,-41.14436,1001.48
0.422028065,0.00168645,0.005471334,-0.199379,-0.488797,0.1377469,0.8315774,1.992645,18.75324,-41.14436,1001.48
0.424525261,-0.1841998,0.1245899,-0.199379,-0.4902624,0.1377089,0.8311008,1.992645,18.75324,-41.14436,1001.48
0.427022457,-0.308124,0.06503063,-0.1381788,-0.4937264,0.1406373,0.8377693,1.992645,18.75324,-41.14436,1001.48
0.429519653,-0.3700861,0.06503063,-0.199379,-0.4931805,0.1372057,0.8344498,1.992645,18.75324,-41.14436,1001.48
0.432017326,-0.308124,0.3032678,-0.199379,-0.489748,0.1362635,0.8311108,1.992645,18.75324,-41.14436,1001.48
0.434514522,-0.4320482,0.2437085,-0.2605792,-0.4887679,0.1363361,0.8349311,1.992645,18.75324,-41.14436,1001.48
0.437011719,-0.6798965,0.1841492,-0.3217794,-0.4965327,0.1331982,0.830659,1.992645,18.75324,-41.14436,1001.48
0.439508438,-0.6179345,0.1245899,-0.199379,-0.4941693,0.1376184,0.8306261,1.618798,19.1142,-41.15001,1001.48
0.442005634,-0.4940102,0.06503063,-0.01577839,-0.4902228,0.1358386,0.8363684,1.618798,19.1142,-41.15001,1001.48
0.444502830,-0.5559723,0.2437085,-0.1381788,-0.4887247,0.1345173,0.8440197,1.618798,19.1142,-41.15001,1001.48
0.447000503,-0.6798965,0.2437085,-0.1381788,-0.4892575,0.1363062,0.8334986,1.618798,19.1142,-41.15001,1001.481
0.449497700,-0.7418586,0.3032678,-0.07697859,-0.4936935,0.1386704,0.8358727,1.618798,19.1142,-41.15001,1001.481
0.451994896,-0.8657828,0.3628271,-0.199379,-0.4922212,0.1381973,0.8344422,1.618798,19.1142,-41.15001,1001.481
0.454496860,-0.8038207,0.06503063,-0.2605792,-0.4922121,0.1377184,0.8349233,1.618798,19.1142,-41.15001,1001.481
0.456988811,-0.7418586,0.2437085,-0.3217794,-0.4922116,0.1377249,0.8354009,1.618798,19.1142,-41.15001,1001.481
0.459486008,-0.6179345,0.4223864,-0.2605792,-0.4902858,0.1392034,0.8339562,1.618798,19.1142,-41.15001,1001.481
0.461983681,-0.7418586,0.4223864,-0.199379,-0.4917776,0.1406149,0.8329917,1.618798,19.1142,-41.15001,1001.481
0.464480877,-0.8657828,0.1841492,-0.2605792,-0.4941624,0.1371074,0.8287191,1.618798,19.1142,-41.15001,1001.481
0.466978073,-0.6798965,0.1841492,-0.199379,-0.4932512,0.1410687,0.8329893,1.618798,19.1142,-41.15001,1001.481
0.469475269,-0.5559723,0.3628271,-0.2605792,-0.4932863,0.1436176,0.8420468,1.618798,19.1142,-41.15001,1001.481
0.471971989,-0.7418586,0.1841492,-0.3217794,-0.4898186,0.1407407,0.8391993,1.618798,19.1142,-41.15001,1001.481
0.474469662,-0.9277449,0.2437085,-0.1381788,-0.4951286,0.1366268,0.8306338,1.618798,19.1142,-41.15001,1001.481
0.476966858,-0.8657828,0.3032678,-0.1381788,-0.4931878,0.1377103,0.8358793,1.618798,19.1142,-41.15001,1001.481
0.479465484,-0.9277449,0.3032678,-0.07697859,-0.4902294,0.1357419,0.8292042,1.618798,19.1142,-41.15001,1001.481
0.481961250,-0.7418586,0.3628271,-0.3217794,-0.4927665,0.1410277,0.829168,1.618798,19.1142,-41.15001,1001.481
0.484458446,-0.6798965,0.1841492,-0.2605792,-0.4907776,0.1391414,0.8301356,1.618798,19.1142,-41.15001,1001.481
0.486955166,-0.6798965,0.005471334,-0.2605792,-0.4898222,0.1406891,0.8353783,1.618798,19.1142,-41.15001,1001.477
0.489452839,-0.6798965,-0.05408797,-0.2605792,-0.4864198,0.1411449,0.8277304,2.727694,18.76908,-41.14589,1001.477
0.491950035,-0.7418586,0.06503063,-0.3217794,-0.4917703,0.1401103,0.8315623,2.727694,18.76908,-41.14589,1001.477
0.494447231,-0.9897069,0.1841492,-0.3217794,-0.490718,0.1363391,0.8382758,2.727694,18.76908,-41.14589,1001.477
0.496944427,-0.9277449,0.06503063,-0.3217794,-0.4921896,0.136211,0.8311127,2.727694,18.76908,-41.14589,1001.477
0.499442100,-0.8657828,0.005471334,-0.3217794,-0.4936124,0.1337337,0.8296982,2.727694,18.76908,-41.14589,1001.477
0.501938343,-0.9277449,-0.1136473,-0.1381788,-0.4942343,0.1415652,0.8353747,2.727694,18.76908,-41.14589,1001.477
0.504436016,-0.8657828,-0.1732066,-0.199379,-0.4942165,0.1406011,0.8358592,2.727694,18.76908,-41.14589,1001.477
0.506933212,-0.9277449,-0.1732066,-0.199379,-0.4912637,0.1391631,0.8325241,2.727694,18.76908,-41.14589,1001.477
0.509430408,-0.7418586,-0.1136473,-0.3217794,-0.4956338,0.1375934,0.8311048,2.727694,18.76908,-41.14589,1001.477
0.511927605,-0.7418586,-0.1136473,-0.3217794,-0.4976234,0.1400809,0.8387309,2.727694,18.76908,-41.14589,1001.477
0.514425278,-0.6798965,-0.1732066,-0.3217794,-0.4911911,0.1353258,0.8358951,2.727694,18.76908,-41.14589,1001.477
0.516922474,-0.7418586,-0.1136473,-0.199379,-0.4892314,0.1348503,0.833509,2.727694,18.76908,-41.14589,1001.477
0.519419193,-0.7418586,-0.05408797,-0.1381788,-0.4926679,0.1357345,0.8325494,2.727694,18.76908,-41.14589,1001.477
0.521916389,-0.7418586,-0.1732066,-0.199379,-0.495113,0.1356305,0.8287302,2.727694,18.76908,-41.14589,1001.477
0.524413586,-0.4940102,-0.2923252,-0.2605792,-0.4916525,0.1338723,0.836861,2.727694,18.76908,-41.14589,1001.477
0.526910782,-0.6179345,-0.4114438,-0.07697859,-0.4912341,0.1377588,0.8363553,2.727694,18.76908,-41.14589,1001.48
0.529408455,-0.5559723,-0.2923252,-0.199379,-0.4931682,0.1367719,0.8382742,2.727694,18.76908,-41.14589,1001.48
0.531905651,-0.6179345,-0.2327659,-0.2605792,-0.4937286,0.1406051,0.8353813,2.727694,18.76908,-41.14589,1001.48
0.534402370,-0.6798965,-0.2923252,-0.199379,-0.4931709,0.1367333,0.8354086,2.727694,18.76908,-41.14589,1001.48
0.536899567,-0.8038207,-0.3518845,-0.199379,-0.4926766,0.1362198,0.8325459,2.727694,18.76908,-41.14589,1001.48
0.539396763,-0.5559723,-0.4710031,-0.199379,-0.4931644,0.1362157,0.8330239,2.360169,18.76116,-41.14512,1001.48
0.541894436,-0.3700861,-0.2923252,-0.07697859,-0.4926383,0.1343302,0.8363807,2.360169,18.76116,-41.14512,1001.48
0.544391632,-0.3700861,-0.4114438,-0.1381788,-0.4882804,0.1363337,0.8339755,2.360169,18.76116,-41.14512,1001.48
0.546888828,-0.4940102,-0.1732066,-0.1381788,-0.4892835,0.1377621,0.8334882,2.360169,18.76116,-41.14512,1001.48
0.549385548,-0.3700861,-0.1732066,-0.199379,-0.4893612,0.1421362,0.8339347,2.360169,18.76116,-41.14512,1001.48
0.551882744,-0.3700861,-0.2327659,-0.199379,-0.4937456,0.1415822,0.835852,2.360169,18.76116,-41.14512,1001.48
0.554379940,-0.308124,-0.2923252,-0.07697859,-0.4956563,0.1391008,0.8349154,2.360169,18.76116,-41.14512,1001.48
0.556877613,-0.3700861,-0.1136473,-0.07697859,-0.4922829,0.1415815,0.8334628,2.360169,18.76116,-41.14512,1001.48
0.559374809,-0.1841998,-0.2327659,-0.07697859,-0.4902889,0.1391583,0.8306128,2.360169,18.76116,-41.14512,1001.48
0.561872005,-0.308124,-0.2327659,-0.01577839,-0.4917229,0.1377418,0.8358782,2.360169,18.76116,-41.14512,1001.48
0.564369202,-0.2461619,-0.2923252,-0.199379,-0.4887648,0.1363812,0.8382744,2.360169,18.76116,-41.14512,1001.48
0.566865921,-0.308124,-0.2923252,-0.1381788,-0.490172,0.1329075,0.8349563,2.360169,18.76116,-41.14512,1001.48
0.569363117,-0.308124,-0.2923252,-0.3217794,-0.4867948,0.134832,0.8282534,2.360169,18.76116,-41.14512,1001.476
0.571860790,-0.1841998,-0.1732066,-0.1381788,-0.4917347,0.138182,0.8325314,2.360169,18.76116,-41.14512,1001.476
0.574357986,-0.1222377,-0.4114438,-0.07697859,-0.4887786,0.1374033,0.8420885,2.360169,18.76116,-41.14512,1001.476
0.576855183,-0.2461619,-0.2923252,-0.1381788,-0.4902684,0.1382328,0.8339631,2.360169,18.76116,-41.14512,1001.476
0.579352379,-0.2461619,-0.2327659,-0.199379,-0.4942022,0.1395854,0.8325228,2.360169,18.76116,-41.14512,1001.476
0.581849098,-0.308124,-0.2327659,-0.07697859,-0.4941227,0.135237,0.8339868,2.360169,18.76116,-41.14512,1001.476
0.584346771,-0.1841998,-0.1136473,-0.07697859,-0.4892206,0.1343973,0.8359005,2.360169,18.76116,-41.14512,1001.476
0.586843967,-0.2461619,-0.1732066,-0.1381788,-0.4867903,0.1348964,0.8330296,2.360169,18.76116,-41.14512,1001.476
0.589341164,-0.308124,-0.3518845,-0.1381788,-0.4882751,0.136411,0.8397069,2.727858,18.77758,-40.69942,1001.476
0.591838360,-0.1841998,-0.2923252,-0.1381788,-0.4908373,0.1431655,0.8406156,2.727858,18.77758,-40.69942,1001.476
0.594336033,-0.1841998,-0.2327659,-0.199379,-0.4911807,0.1348663,0.837809,2.727858,18.77758,-40.69942,1001.476
0.596833229,-0.2461619,-0.1732066,-0.1381788,-0.4897665,0.1378289,0.83922,2.727858,18.77758,-40.69942,1001.476
0.599329948,-0.3700861,-0.2327659,-0.01577839,-0.4936643,0.1372596,0.8392264,2.727858,18.77758,-40.69942,1001.476
0.601827145,-0.308124,-0.1732066,0.04542181,-0.4946419,0.1372257,0.8382719,2.727858,18.77758,-40.69942,1001.476
0.604324341,-0.308124,-0.2327659,-0.07697859,-0.4921153,0.1323995,0.8363941,2.727858,18.77758,-40.69942,1001.476
0.606821537,-0.1841998,-0.2327659,-0.1381788,-0.4892119,0.133912,0.835904,2.727858,18.77758,-40.69942,1001.476
0.609319210,-0.1222377,-0.3518845,-0.01577839,-0.4887695,0.1369244,0.8425695,2.727858,18.77758,-40.69942,1001.48
0.611816406,-0.1222377,-0.2327659,0.1678222,-0.4931865,0.1377296,0.8373121,2.727858,18.77758,-40.69942,1001.48
0.614313126,-0.2461619,-0.1732066,0.1678222,-0.4936634,0.1372725,0.8401816,2.727858,18.77758,-40.69942,1001.48
0.616810322,-0.1222377,0.06503063,0.04542181,-0.4886689,0.1310493,0.8387901,2.727858,18.77758,-40.69942,1001.48
0.619307518,0.2495348,0.1245899,0.1678222,-0.4945103,0.1299656,0.8397565,2.727858,18.77758,-40.69942,1001.48
0.621804714,0.8071936,-0.1136473,0.04542181,-0.4906695,0.1333758,0.8344757,2.727858,18.77758,-40.69942,1001.48
0.624302387,0.6213074,0.1245899,0.04542181,-0.4952388,0.1429743,0.8334545,2.727858,18.77758,-40.69942,1001.48
0.626799583,0.2495348,0.3628271,0.106622,-0.4884523,0.1460654,0.8358169,2.727858,18.77758,-40.69942,1001.48
0.629296780,0.5593452,0.3032678,0.1678222,-0.4971829,0.1424534,0.833937,2.727858,18.77758,-40.69942,1001.48
0.631793499,0.6832694,0.1245899,0.1678222,-0.4980605,0.1371457,0.8377967,2.727858,18.77758,-40.69942,1001.48
0.634290695,0.5593452,0.06503063,0.1678222,-0.4979576,0.1313028,0.8364054,2.727858,18.77758,-40.69942,1001.48
0.636788368,0.6213074,0.005471334,0.2290224,-0.4882235,0.1334928,0.8392501,2.727858,18.77758,-40.69942,1001.48
0.639285564,0.6832694,0.1245899,0.2290224,-0.4945259,0.130962,0.8416601,2.365602,18.46225,-40.6933,1001.48
0.641787529,0.7452316,0.3032678,0.3514228,-0.4936774,0.1376805,0.8344467,2.365602,18.46225,-40.6933,1001.48
0.644279957,0.8691557,0.1245899,0.2902226,-0.4907494,0.1377177,0.8325341,2.365602,18.46225,-40.6933,1001.48
0.646776676,0.6832694,0.06503063,0.3514228,-0.4955777,0.1347395,0.8354242,2.365602,18.46225,-40.6933,1001.48
0.649273872,0.8691557,0.2437085,0.3514228,-0.4990023,0.1351835,0.8378114,2.365602,18.46225,-40.6933,1001.479
0.651771545,0.8071936,0.3032678,0.3514228,-0.4866948,0.1295581,0.8330676,2.365602,18.46225,-40.6933,1001.479
0.654272556,0.5593452,0.1245899,0.3514228,-0.4930589,0.1304115,0.8344982,2.365602,18.46225,-40.6933,1001.479
0.656765938,0.8691557,0.06503063,0.412623,-0.4897461,0.1369034,0.8425702,2.365602,18.46225,-40.6933,1001.479
0.659263134,0.9311178,0.06503063,0.4738232,-0.4887084,0.1329196,0.8335224,2.365602,18.46225,-40.6933,1001.479
0.661760807,1.117004,0.4223864,0.5350235,-0.490205,0.1348744,0.836853,2.365602,18.46225,-40.6933,1001.479
0.664257049,0.8691557,0.6010644,0.5350235,-0.4921925,0.13678,0.8373183,2.365602,18.46225,-40.6933,1001.479
0.666754723,0.9930799,0.3628271,0.4738232,-0.4911295,0.1319416,0.8368745,2.365602,18.46225,-40.6933,1001.479
0.669251919,0.8691557,0.6010644,0.4738232,-0.4896882,0.1328535,0.8301799,2.365602,18.46225,-40.6933,1001.479
0.671749115,0.8071936,0.3628271,0.5350235,-0.4926536,0.1347188,0.829213,2.365602,18.46225,-40.6933,1001.479
0.674246311,0.8071936,0.3628271,0.6574239,-0.4888369,0.1402249,0.8353811,2.365602,18.46225,-40.6933,1001.479
0.676743984,0.9930799,0.6010644,0.5350235,-0.4887365,0.1349575,0.8406729,2.365602,18.46225,-40.6933,1001.479
0.679240704,0.9311178,0.6010644,0.4738232,-0.492557,0.1300076,0.8397551,2.365602,18.46225,-40.6933,1001.479
0.681737900,0.7452316,0.4819458,0.4738232,-0.4917429,0.1386737,0.8330055,2.365602,18.46225,-40.6933,1001.479
0.684235096,0.8691557,0.6010644,0.4738232,-0.492141,0.1332477,0.8273125,2.365602,18.46225,-40.6933,1001.479
0.686732292,0.8691557,0.6010644,0.6574239,-0.4907823,0.1396847,0.8344307,2.365602,18.46225,-40.6933,1001.479
0.689229965,0.9930799,0.3628271,0.6574239,-0.4912163,0.1367946,0.8368399,2.360169,18.76116,-41.14512,1001.477
0.691727161,0.8071936,0.541505,0.5962236,-0.4867837,0.1349931,0.8401938,2.360169,18.76116,-41.14512,1001.477
0.694223881,0.9311178,0.6606237,0.718624,-0.4888104,0.1387754,0.8358691,2.360169,18.76116,-41.14512,1001.477
0.696721077,0.8691557,0.541505,0.718624,-0.4952141,0.1414991,0.8320321,2.360169,18.76116,-41.14512,1001.477
0.699218273,0.7452316,0.3032678,0.5350235,-0.4927491,0.1400571,0.8291749,2.360169,18.76116,-41.14512,1001.477
0.701715469,0.8691557,0.541505,0.6574239,-0.4897884,0.1387351,0.8344369,2.360169,18.76116,-41.14512,1001.477
0.704213142,0.7452316,0.3032678,0.718624,-0.4923276,0.1439886,0.8320126,2.360169,18.76116,-41.14512,1001.477
0.706710339,0.4354211,0.4819458,0.6574239,-0.4932486,0.1411074,0.8358551,2.360169,18.76116,-41.14512,1001.477
0.709207535,0.6213074,0.6010644,0.6574239,-0.4877249,0.1324296,0.8316147,2.360169,18.76116,-41.14512,1001.477
0.711704254,0.7452316,0.3032678,0.5962236,-0.4901716,0.1329139,0.835434,2.360169,18.76116,-41.14512,1001.477
0.714201450,0.6832694,0.4819458,0.718624,-0.4922403,0.1391421,0.8325248,2.360169,18.76116,-41.14512,1001.477
0.716698646,0.6832694,0.6606237,0.7798243,-0.4872232,0.1314115,0.8273227,2.360169,18.76116,-41.14512,1001.477
0.719196320,0.6832694,0.541505,0.7798243,-0.4878395,0.1387127,0.8296593,2.360169,18.76116,-41.14512,1001.477
0.721693516,0.3114969,0.3628271,0.7798243,-0.4898473,0.1421579,0.8363231,2.360169,18.76116,-41.14512,1001.477
0.724190712,0.2495348,0.541505,0.8410244,-0.4898556,0.1426497,0.8367973,2.360169,18.76116,-41.14512,1001.477
0.726687431,0.4973832,0.4223864,0.9634248,-0.4902566,0.1377927,0.8373099,2.360169,18.76116,-41.14512,1001.477
0.729186535,0.4973832,0.4223864,0.9022245,-0.4921711,0.1358674,0.8416238,2.360169,18.76116,-41.14512,1001.475
0.731682301,0.373459,0.3032678,0.718624,-0.4921994,0.1372911,0.8392254,2.360169,18.76116,-41.14512,1001.475
0.734179497,0.1256106,0.3628271,0.718624,-0.4898039,0.1397315,0.8363404,2.360169,18.76116,-41.14512,1001.475
0.736676693,0.06364854,0.6606237,0.7798243,-0.4931388,0.1347534,0.8325567,2.360169,18.76116,-41.14512,1001.475
0.739173889,0.1875727,0.6010644,0.718624,-0.4912503,0.1381345,0.8282324,1.998078,18.45433,-40.69254,1001.475
0.741675377,0.1256106,0.6606237,0.718624,-0.489241,0.1353227,0.8325503,1.998078,18.45433,-40.69254,1001.475
0.744167805,-0.1841998,0.4819458,0.7798243,-0.4946766,0.1391669,0.838258,1.998078,18.45433,-40.69254,1001.475
0.746665478,-0.1841998,0.4223864,0.718624,-0.4947609,0.1434444,0.8315403,1.998078,18.45433,-40.69254,1001.475
0.749162674,-0.4940102,0.4223864,0.718624,-0.4897667,0.1372148,0.8296711,1.998078,18.45433,-40.69254,1001.475
0.751659870,-0.8038207,0.4223864,0.7798243,-0.4937257,0.1400361,0.8291757,1.998078,18.45433,-40.69254,1001.475
0.754159450,-0.9277449,0.541505,0.7798243,-0.4897779,0.1382756,0.8363508,1.998078,18.45433,-40.69254,1001.475
0.756654739,-1.113631,0.541505,0.8410244,-0.4946194,0.1357183,0.8344613,1.998078,18.45433,-40.69254,1001.475
0.759150982,-1.423442,0.541505,0.9634248,-0.4922281,0.1387083,0.8363492,1.998078,18.45433,-40.69254,1001.475
0.761648655,-1.423442,0.541505,0.9634248,-0.4868963,0.1406942,0.8310776,1.998078,18.45433,-40.69254,1001.475
0.764145851,-1.423442,0.720183,0.9022245,-0.4907685,0.1386625,0.8306167,1.998078,18.45433,-40.69254,1001.475
0.766643047,-0.9277449,0.720183,0.9634248,-0.4945995,0.1341722,0.827785,1.998078,18.45433,-40.69254,1001.475
0.769140243,-0.1841998,0.6010644,1.085825,-0.4946104,0.1346253,0.8253934,1.998078,18.45433,-40.69254,1001.478
0.771637917,-0.1222377,0.7797423,0.9634248,-0.4946715,0.13863,0.8344405,1.998078,18.45433,-40.69254,1001.478
0.774135113,0.00168645,0.6606237,1.085825,-0.4923205,0.1440917,0.8396544,1.998078,18.45433,-40.69254,1001.478
0.776631832,0.06364854,0.6606237,1.085825,-0.4922141,0.1383004,0.8420841,1.998078,18.45433,-40.69254,1001.478
0.779129028,0.1256106,0.720183,1.085825,-0.4906312,0.1314862,0.8383105,1.998078,18.45433,-40.69254,1001.478
0.781626224,0.8071936,0.8393016,1.147025,-0.4956652,0.1389719,0.825363,1.998078,18.45433,-40.69254,1001.478
0.784123898,1.426815,1.01798,0.9634248,-0.4962029,0.1419118,0.8282084,1.998078,18.45433,-40.69254,1001.478
0.786621094,1.736625,0.9584202,1.208226,-0.4945873,0.1337384,0.8316094,1.998078,18.45433,-40.69254,1001.478
0.789118290,1.922511,0.7797423,1.208226,-0.4911825,0.1348405,0.8358986,2.360169,18.76116,-41.14512,1001.478
0.791615009,1.984473,0.9584202,1.147025,-0.4902201,0.1358773,0.8392342,2.360169,18.76116,-41.14512,1001.478
0.794112205,2.108397,1.01798,1.147025,-0.49418,0.1386857,0.8377835,2.360169,18.76116,-41.14512,1001.478
0.796609402,2.418208,0.7797423,1.208226,-0.4970631,0.1356335,0.832075,2.360169,18.76116,-41.14512,1001.478
0.799107075,2.542132,0.8988609,1.208226,-0.4947712,0.144518,0.8391753,2.360169,18.76116,-41.14512,1001.478
0.801604271,2.666056,0.8393016,1.391826,-0.4907511,0.1376919,0.8306236,2.360169,18.76116,-41.14512,1001.478
0.804101467,2.604094,1.01798,1.391826,-0.487724,0.1324425,0.83257,2.360169,18.76116,-41.14512,1001.478
0.806598663,2.666056,1.196657,1.391826,-0.4921956,0.1367349,0.833975,2.360169,18.76116,-41.14512,1001.478
0.809095383,3.161753,1.137098,1.330626,-0.4927391,0.1395911,0.8306112,2.360169,18.76116,-41.14512,1001.476
0.811592579,3.347639,1.196657,1.391826,-0.4952847,0.1459763,0.8401204,2.360169,18.76116,-41.14512,1001.476
0.814090252,2.975867,1.256217,1.391826,-0.4952807,0.1460343,0.8444191,2.360169,18.76116,-41.14512,1001.476
0.816587448,2.78998,1.256217,1.024625,-0.4937487,0.1415371,0.8325086,2.360169,18.76116,-41.14512,1001.476
0.819084644,2.728018,1.137098,1.085825,-0.4926883,0.13666,0.8291991,2.360169,18.76116,-41.14512,1001.476
0.821581840,2.913904,1.137098,1.147025,-0.4941949,0.1390808,0.8310934,2.360169,18.76116,-41.14512,1001.476
0.824078560,3.223715,1.01798,1.330626,-0.4918767,0.1459017,0.8291327,2.360169,18.76116,-41.14512,1001.476
0.826576233,3.223715,1.137098,1.575427,-0.4889524,0.1464951,0.8324704,2.360169,18.76116,-41.14512,1001.476
0.829073429,3.285677,1.077539,1.391826,-0.4914247,0.1484417,0.8367569,2.360169,18.76116,-41.14512,1001.476
0.831570625,3.037829,1.315776,1.391826,-0.4908371,0.1425578,0.8315443,2.360169,18.76116,-41.14512,1001.476
0.834067821,2.728018,1.01798,1.330626,-0.4937231,0.1400747,0.8320414,2.360169,18.76116,-41.14512,1001.476
0.836565018,2.975867,1.01798,1.147025,-0.4927747,0.1415194,0.8296422,2.360169,18.76116,-41.14512,1001.476
0.839061737,3.347639,0.8393016,1.330626,-0.4923888,0.1473792,0.8315108,2.365438,18.45376,-41.13977,1001.476
0.841559410,3.285677,0.9584202,1.208226,-0.4933316,0.1454042,0.8305701,2.365438,18.45376,-41.13977,1001.476
0.844056606,3.409601,1.137098,1.147025,-0.493243,0.140577,0.8325152,2.365438,18.45376,-41.13977,1001.476
0.846553802,3.347639,1.375335,1.024625,-0.4946541,0.1376595,0.8344474,2.365438,18.45376,-41.13977,1001.476
0.849050999,3.595488,1.01798,1.208226,-0.495642,0.1380851,0.831579,2.365438,18.45376,-41.13977,1001.477
0.851548672,3.781374,1.01798,1.208226,-0.4907667,0.1386883,0.8325272,2.365438,18.45376,-41.13977,1001.477
0.854045868,3.595488,0.8988609,1.024625,-0.49343,0.1513115,0.8367376,2.365438,18.45376,-41.13977,1001.477
0.856542587,3.719412,0.9584202,1.085825,-0.495866,0.1507286,0.8333996,2.365438,18.45376,-41.13977,1001.477
0.859039783,3.595488,0.8393016,1.024625,-0.4938017,0.144436,0.8315327,2.365438,18.45376,-41.13977,1001.477
0.861536980,2.975867,0.8988609,0.8410244,-0.4997,0.1468073,0.8367734,2.365438,18.45376,-41.13977,1001.477
0.864034176,2.418208,0.720183,1.024625,-0.4889288,0.1443928,0.8205438,2.365438,18.45376,-41.13977,1001.477
0.866531849,2.728018,0.7797423,1.085825,-0.4933156,0.1444142,0.8291442,2.365438,18.45376,-41.13977,1001.477
0.869029045,3.099791,1.01798,0.9022245,-0.4959252,0.1535373,0.8257369,2.365438,18.45376,-41.13977,1001.477
0.871525764,3.037829,0.7797423,1.024625,-0.4963543,0.1507181,0.8334,2.365438,18.45376,-41.13977,1001.477
0.874022961,2.851943,0.720183,1.024625,-0.4978618,0.1531259,0.834339,2.365438,18.45376,-41.13977,1001.477
0.876520157,2.418208,0.541505,0.9022245,-0.4895253,0.1513698,0.8348243,2.365438,18.45376,-41.13977,1001.477
0.879017353,1.984473,0.4223864,0.7798243,-0.4923924,0.1473277,0.8276898,2.365438,18.45376,-41.13977,1001.477
0.881515026,1.922511,0.3032678,0.718624,-0.4933686,0.1473131,0.8281682,2.365438,18.45376,-41.13977,1001.477
0.884012222,1.798587,0.3628271,0.718624,-0.4894639,0.1473714,0.8262548,2.365438,18.45376,-41.13977,1001.477
0.886509418,1.612701,0.1245899,0.6574239,-0.4880354,0.1493183,0.8243294,2.365438,18.45376,-41.13977,1001.477
0.889006138,1.550739,0.005471334,0.5962236,-0.4925195,0.1546523,0.8309813,2.360169,18.76116,-41.14512,1001.473
0.891503334,1.178966,0.1841492,0.5962236,-0.4920408,0.1551352,0.8300223,2.360169,18.76116,-41.14512,1001.473
0.894001007,1.178966,0.2437085,0.5962236,-0.4909882,0.1507563,0.8276645,2.360169,18.76116,-41.14512,1001.473
0.896498203,1.117004,0.005471334,0.5962236,-0.4898914,0.1439638,0.8262794,2.360169,18.76116,-41.14512,1001.473
0.898995399,1.117004,0.1245899,0.3514228,-0.4900472,0.1527056,0.8266948,2.360169,18.76116,-41.14512,1001.473
0.901492596,1.055042,0.005471334,0.4738232,-0.4914467,0.1487337,0.8224249,2.360169,18.76116,-41.14512,1001.473
0.903990269,0.7452316,-0.1136473,0.412623,-0.487053,0.1494231,0.8305377,2.360169,18.76116,-41.14512,1001.473
0.906486511,0.6213074,-0.1732066,0.3514228,-0.4850833,0.1484816,0.8295879,2.360169,18.76116,-41.14512,1001.473
0.908984184,0.6213074,-0.1136473,0.3514228,-0.4894964,0.1493448,0.8286291,2.360169,18.76116,-41.14512,1001.473
0.911481380,0.373459,-0.2923252,0.2902226,-0.4871051,0.1523349,0.830517,2.360169,18.76116,-41.14512,1001.473
0.913978577,0.3114969,-0.1732066,0.2290224,-0.4894516,0.1469377,0.8300793,2.360169,18.76116,-41.14512,1001.473
0.916475773,0.2495348,-0.3518845,0.2902226,-0.4928923,0.1483716,0.8338923,2.360169,18.76116,-41.14512,1001.473
0.918973446,0.373459,-0.4710031,0.2290224,-0.4914605,0.1497559,0.826239,2.360169,18.76116,-41.14512,1001.473
0.921469688,0.06364854,-0.5305623,0.106622,-0.4953926,0.1511342,0.8267092,2.360169,18.76116,-41.14512,1001.473
0.923967361,-0.06027564,-0.4114438,0.2290224,-0.4899615,0.1484475,0.8348454,2.360169,18.76116,-41.14512,1001.473
0.926464558,-0.06027564,-0.4710031,0.2902226,-0.489976,0.148849,0.8286329,2.360169,18.76116,-41.14512,1001.473
0.928961754,-0.2461619,-0.4710031,0.1678222,-0.4938212,0.1453743,0.8291376,2.360169,18.76116,-41.14512,1001.476
0.931458950,-0.2461619,-0.5901216,0.1678222,-0.4971966,0.1422537,0.8191309,2.360169,18.76116,-41.14512,1001.476
0.933956623,-0.4320482,-0.7092403,0.2902226,-0.4932739,0.141962,0.827251,2.360169,18.76116,-41.14512,1001.476
0.936453342,-0.5559723,-0.7092403,0.106622,-0.4934089,0.1497847,0.8314942,2.360169,18.76116,-41.14512,1001.476
0.938950539,-0.7418586,-0.4710031,0.04542181,-0.4943153,0.1452801,0.822929,2.732963,18.46168,-41.14053,1001.476
0.941448212,-0.6798965,-0.4710031,0.106622,-0.4914313,0.1483451,0.8295926,2.732963,18.46168,-41.14053,1001.476
0.943944931,-0.7418586,-0.6496809,0.106622,-0.4924527,0.1507312,0.8281432,2.732963,18.46168,-41.14053,1001.476
0.946442604,-0.9277449,-0.8283588,0.106622,-0.4865391,0.1479713,0.8300702,2.732963,18.46168,-41.14053,1001.476
0.948939800,-0.9897069,-0.7687995,0.1678222,-0.4914291,0.1483773,0.8319808,2.732963,18.46168,-41.14053,1001.476
0.951436996,-1.051669,-1.007037,0.1678222,-0.4903982,0.1455187,0.8343889,2.732963,18.46168,-41.14053,1001.476
0.953933716,-1.237555,-1.007037,-0.01577839,-0.4909043,0.1464724,0.8339047,2.732963,18.46168,-41.14053,1001.476
0.956430912,-1.423442,-1.007037,-0.1381788,-0.4900759,0.1541228,0.8238187,2.732963,18.46168,-41.14053,1001.476
0.958928108,-1.547366,-1.066596,0.106622,-0.4873955,0.1411368,0.8286864,2.732963,18.46168,-41.14053,1001.476
0.961425781,-1.795214,-1.007037,-0.07697859,-0.4865189,0.1476535,0.8424917,2.732963,18.46168,-41.14053,1001.476
0.963922977,-1.919138,-0.7687995,-0.1381788,-0.4875852,0.1518326,0.8300433,2.732963,18.46168,-41.14053,1001.476
0.966420174,-2.043063,-0.9474774,-0.1381788,-0.4860495,0.1480011,0.8315026,2.732963,18.46168,-41.14053,1001.476
0.968916893,-2.352873,-0.8283588,-0.199379,-0.4875251,0.1490368,0.8386611,2.732963,18.46168,-41.14053,1001.476
0.971414089,-2.724646,-1.304833,-0.07697859,-0.4866694,0.1552507,0.8300183,2.732963,18.46168,-41.14053,1001.472
0.973911285,-2.84857,-1.185715,-0.3217794,-0.4875821,0.1518777,0.8333865,2.732963,18.46168,-41.14053,1001.472
0.976408958,-3.096418,-1.007037,-0.3829796,-0.4944411,0.152624,0.8276532,2.732963,18.46168,-41.14053,1001.472
0.978910923,-3.344267,-1.066596,-0.3217794,-0.4924347,0.1503813,0.8381767,2.732963,18.46168,-41.14053,1001.472
0.981403351,-3.716039,-1.185715,-0.3217794,-0.4947825,0.1449647,0.836306,2.732963,18.46168,-41.14053,1001.472
0.983900547,-3.901925,-1.364393,-0.4441798,-0.490414,0.1459009,0.8267435,2.732963,18.46168,-41.14053,1001.472
0.986397266,-3.654077,-1.483511,-0.3217794,-0.4889143,0.1439913,0.8267563,2.732963,18.46168,-41.14053,1001.472
0.988894939,-3.654077,-1.364393,-0.50538,-0.4924236,0.1493204,0.831497,2.360169,18.76116,-41.14512,1001.472
0.991392136,-3.778001,-1.483511,-0.6277804,-0.4925317,0.155086,0.8271568,2.360169,18.76116,-41.14512,1001.472
0.993889332,-3.839963,-1.662189,-0.7501808,-0.4885518,0.1513457,0.8314803,2.360169,18.76116,-41.14512,1001.472
0.996386528,-4.397622,-1.900426,-0.7501808,-0.4880499,0.1509417,0.8367371,2.360169,18.76116,-41.14512,1001.472
0.998884201,-4.831357,-1.781308,-0.7501808,-0.4796758,0.1466753,0.8310307,2.360169,18.76116,-41.14512,1001.472
1.001380444,-4.64547,-1.781308,-0.811381,-0.4806921,0.1485246,0.8257638,2.360169,18.76116,-41.14512,1001.472
1.003878117,-4.273698,-1.900426,-0.8725812,-0.4882941,0.163903,0.8261362,2.360169,18.76116,-41.14512,1001.472
1.006375313,-4.273698,-2.019545,-1.056182,-0.4844117,0.1660829,0.8375823,2.360169,18.76116,-41.14512,1001.472
1.008872509,-4.769394,-2.079104,-1.056182,-0.4784512,0.160948,0.8433474,2.360169,18.76116,-41.14512,1001.472
1.011369705,-5.079205,-1.781308,-1.178582,-0.474938,0.1556768,0.8429053,2.360169,18.76116,-41.14512,1001.47
1.013867378,-4.955281,-1.781308,-1.423383,-0.4846868,0.1544961,0.8429194,2.360169,18.76116,-41.14512,1001.47
1.016363621,-5.265091,-1.423952,-1.484583,-0.4877568,0.1350236,0.8440155,2.360169,18.76116,-41.14512,1001.47
1.018861294,-5.512939,-1.304833,-1.300983,-0.4915664,0.1296206,0.8454893,2.360169,18.76116,-41.14512,1001.47
1.021358490,-4.769394,-1.304833,-1.239782,-0.4919919,0.1256311,0.838353,2.360169,18.76116,-41.14512,1001.47
1.023855686,-4.025849,-1.126155,-1.056182,-0.4909714,0.1232321,0.8388472,2.360169,18.76116,-41.14512,1001.47
1.026352882,-3.963887,-0.9474774,-0.8725812,-0.4911351,0.132472,0.8402144,2.360169,18.76116,-41.14512,1001.47
1.028850555,-3.654077,-0.7092403,-0.7501808,-0.499439,0.1322548,0.8373548,2.360169,18.76116,-41.14512,1001.47
1.031347752,-3.220342,-0.5305623,-0.6277804,-0.4964702,0.1298269,0.8325937,2.360169,18.76116,-41.14512,1001.47
1.033844471,-3.282305,-0.7092403,-0.4441798,-0.4970193,0.1332135,0.8325699,2.360169,18.76116,-41.14512,1001.47
1.036341667,-2.786608,-0.7687995,-0.6277804,-0.4964375,0.1284677,0.8397684,2.360169,18.76116,-41.14512,1001.47
1.038838863,-2.84857,-0.7092403,-0.50538,-0.4935806,0.1323615,0.8359177,2.733127,18.47018,-40.69407,1001.47
1.041336536,-2.724646,-0.6496809,-0.3829796,-0.4999356,0.132736,0.8378294,2.733127,18.47018,-40.69407,1001.47
1.043833733,-2.84857,-0.7687995,-0.4441798,-0.4972312,0.1448091,0.828666,2.733127,18.47018,-40.69407,1001.47
1.046330929,-2.352873,-0.5901216,-0.3829796,-0.498005,0.1336713,0.8320896,2.733127,18.47018,-40.69407,1001.47
1.048827648,-2.290911,-0.5305623,-0.199379,-0.4994702,0.1342475,0.841162,2.733127,18.47018,-40.69407,1001.47
1.051324844,-2.414835,-0.6496809,-0.199379,-0.4976521,0.1414981,0.8358548,2.733127,18.47018,-40.69407,1001.469
1.053822041,-2.105025,-0.4114438,-0.3217794,-0.4947475,0.1424158,0.8272486,2.733127,18.47018,-40.69407,1001.469
1.056319714,-2.290911,-0.3518845,-0.2605792,-0.4917759,0.1406407,0.8349021,2.733127,18.47018,-40.69407,1001.469
1.058816910,-2.352873,-0.4114438,-0.2605792,-0.4936547,0.1367872,0.840185,2.733127,18.47018,-40.69407,1001.469
1.061314106,-2.476797,-0.4710031,-0.3217794,-0.4965443,0.1342526,0.8368611,2.733127,18.47018,-40.69407,1001.469
1.063811302,-2.538759,-0.3518845,-0.2605792,-0.4946554,0.1376401,0.8330146,2.733127,18.47018,-40.69407,1001.469
1.066308022,-2.538759,-0.6496809,-0.2605792,-0.4956332,0.1382139,0.8411314,2.733127,18.47018,-40.69407,1001.469
1.068805218,-2.724646,-0.8283588,-0.2605792,-0.4990219,0.1361219,0.8354164,2.733127,18.47018,-40.69407,1001.469
1.071302891,-3.530153,-0.8879181,-0.1381788,-0.4965755,0.1362453,0.8406683,2.733127,18.47018,-40.69407,1001.469
1.073800087,-3.716039,-1.066596,-0.199379,-0.4910184,0.125607,0.835009,2.733127,18.47018,-40.69407,1001.469
1.076297283,-2.414835,-0.7092403,-0.199379,-0.4861286,0.1245868,0.8235494,2.733127,18.47018,-40.69407,1001.469
1.078794479,-1.299517,-0.5305623,-0.07697859,-0.4881611,0.1295073,0.8316358,2.733127,18.47018,-40.69407,1001.469
1.081291199,-0.9277449,-0.6496809,0.106622,-0.4937447,0.1415951,0.8368071,2.733127,18.47018,-40.69407,1001.469
1.083788872,-0.8657828,-0.5901216,0.04542181,-0.4899502,0.1480008,0.8377146,2.733127,18.47018,-40.69407,1001.469
1.086286068,-1.175593,-0.5901216,0.04542181,-0.4933236,0.1455202,0.8391673,2.733127,18.47018,-40.69407,1001.469
1.088783264,-1.857176,-0.6496809,0.106622,-0.4916213,0.1318796,0.8330539,2.734016,18.4002,-41.13946,1001.469
1.091284752,-1.795214,-0.8283588,0.1678222,-0.4916757,0.1347592,0.8306451,2.734016,18.4002,-41.13946,1001.469
1.093778133,-1.113631,-0.7687995,0.04542181,-0.48783,0.1382402,0.830618,2.734016,18.4002,-41.13946,1001.469
1.096275330,-1.051669,-0.5305623,-0.01577839,-0.4911882,0.1347568,0.8296895,2.734016,18.4002,-41.13946,1001.469
1.098772049,-1.423442,-0.5901216,-0.1381788,-0.4975804,0.137648,0.8382705,2.734016,18.4002,-41.13946,1001.469
1.101269245,-1.051669,-0.4114438,-0.1381788,-0.4946545,0.137653,0.8339698,2.734016,18.4002,-41.13946,1001.469
1.103766441,-1.051669,-0.7092403,0.106622,-0.4922121,0.1377184,0.8349233,2.734016,18.4002,-41.13946,1001.469
1.106263638,-1.36148,-0.5901216,0.1678222,-0.4922099,0.1377506,0.8373114,2.734016,18.4002,-41.13946,1001.469
1.108761311,-1.113631,-0.5305623,0.106622,-0.4897801,0.1382433,0.8339627,2.734016,18.4002,-41.13946,1001.469
1.111258507,-1.175593,-0.5305623,0.106622,-0.4916873,0.1358135,0.8368472,2.734016,18.4002,-41.13946,1001.469
1.113755703,-1.237555,-0.3518845,-0.07697859,-0.4844881,0.1427072,0.8324948,2.734016,18.4002,-41.13946,1001.469
1.116252422,-0.9897069,-0.4114438,-0.1381788,-0.4869689,0.1445315,0.8277066,2.734016,18.4002,-41.13946,1001.469
1.118749619,-0.9897069,-0.4114438,-0.1381788,-0.4859435,0.1422033,0.8334546,2.734016,18.4002,-41.13946,1001.469
1.121246815,-1.237555,-0.1732066,-0.07697859,-0.4830088,0.1423372,0.8387062,2.734016,18.4002,-41.13946,1001.469
1.123744488,-1.36148,-0.1136473,-0.07697859,-0.4839177,0.138408,0.8368241,2.734016,18.4002,-41.13946,1001.469
1.126241684,-1.175593,-0.4710031,-0.1381788,-0.4912811,0.1401337,0.8325171,2.734016,18.4002,-41.13946,1001.469
1.128738880,-1.051669,-0.2923252,-0.1381788,-0.4898469,0.1421644,0.8368008,2.734016,18.4002,-41.13946,1001.469
1.131235600,-1.113631,-0.1136473,-0.3829796,-0.4889433,0.1460162,0.8329515,2.734016,18.4002,-41.13946,1001.468
1.133732796,-1.237555,-0.05408797,-0.3217794,-0.4831482,0.1500955,0.8381733,2.734016,18.4002,-41.13946,1001.468
1.136230469,-1.547366,-0.1732066,-0.3829796,-0.4854772,0.1437277,0.8377424,2.734016,18.4002,-41.13946,1001.468
1.138727665,-1.609328,-0.1732066,-0.4441798,-0.4839585,0.1408732,0.8396725,3.468011,18.47753,-41.14206,1001.468
1.141227722,-1.609328,-0.1136473,-0.50538,-0.4850301,0.1461969,0.8401128,3.468011,18.47753,-41.14206,1001.468
1.143722057,-1.609328,0.06503063,-0.50538,-0.4864423,0.1426523,0.8315411,3.468011,18.47753,-41.14206,1001.468
1.146219730,-1.733252,0.1841492,-0.50538,-0.4838191,0.1331149,0.8402055,3.468011,18.47753,-41.14206,1001.468
1.148715973,-1.795214,0.1841492,-0.6889806,-0.4852602,0.1315953,0.8378289,3.468011,18.47753,-41.14206,1001.468
1.151213646,-1.733252,0.1841492,-0.5665802,-0.4862542,0.1325448,0.8378227,3.468011,18.47753,-41.14206,1001.468
1.153710842,-1.423442,0.4819458,-0.5665802,-0.4828572,0.1341452,0.8430635,3.468011,18.47753,-41.14206,1001.468
1.156208038,-1.36148,0.541505,-0.3829796,-0.4911077,0.1310355,0.8416576,3.468011,18.47753,-41.14206,1001.468
1.158705235,-1.485404,0.6606237,-0.3217794,-0.4858229,0.1353963,0.8325478,3.468011,18.47753,-41.14206,1001.468
1.161202908,-1.485404,0.720183,-0.3829796,-0.4921707,0.1358739,0.8421014,3.468011,18.47753,-41.14206,1001.468
1.163699150,-1.485404,0.6606237,-0.5665802,-0.4946695,0.13927,0.8458999,3.468011,18.47753,-41.14206,1001.468
1.166196823,-1.423442,0.6010644,-0.50538,-0.4912837,0.140095,0.8296514,3.468011,18.47753,-41.14206,1001.468
1.168694019,-1.36148,0.6010644,-0.50538,-0.4927313,0.1390929,0.8296595,3.468011,18.47753,-41.14206,1001.468
1.171191215,-1.609328,0.541505,-0.50538,-0.4961702,0.1405526,0.8353831,3.468011,18.47753,-41.14206,1001.47
1.173688412,-1.795214,0.6010644,-0.4441798,-0.4955474,0.1327339,0.8306618,3.468011,18.47753,-41.14206,1001.47
1.176186085,-1.423442,0.6606237,-0.4441798,-0.4966685,0.1410081,0.8339471,3.468011,18.47753,-41.14206,1001.47
1.178682804,-1.36148,0.6010644,-0.5665802,-0.4941818,0.1386599,0.8358731,3.468011,18.47753,-41.14206,1001.47
1.181180000,-1.237555,0.6606237,-0.4441798,-0.4956149,0.1372562,0.8420935,3.468011,18.47753,-41.14206,1001.47
1.183677196,-1.237555,0.7797423,-0.4441798,-0.4926227,0.1333338,0.8344771,3.468011,18.47753,-41.14206,1001.47
1.186174393,-1.299517,0.720183,-0.3829796,-0.4897957,0.1392397,0.8358663,3.468011,18.47753,-41.14206,1001.47
1.188672066,-0.9897069,0.6010644,-0.50538,-0.4941813,0.1386663,0.8363506,2.727529,18.76059,-41.59235,1001.47
1.191169262,-0.9897069,0.6010644,-0.3217794,-0.4952045,0.1410267,0.8329908,2.727529,18.76059,-41.59235,1001.47
1.193666458,-1.051669,0.541505,-0.4441798,-0.4887866,0.1372873,0.8334913,2.727529,18.76059,-41.59235,1001.47
1.196163177,-0.8657828,0.541505,-0.5665802,-0.4897447,0.1369228,0.8440031,2.727529,18.76059,-41.59235,1001.47
1.198660374,-0.6798965,0.4819458,-0.4441798,-0.4897124,0.1343352,0.8320799,2.727529,18.76059,-41.59235,1001.47
1.201157570,-0.8657828,0.541505,-0.4441798,-0.4917173,0.1372114,0.8325383,2.727529,18.76059,-41.59235,1001.47
1.203655243,-0.8657828,0.4819458,-0.5665802,-0.4903069,0.1407302,0.8391997,2.727529,18.76059,-41.59235,1001.47
1.206152439,-0.8038207,0.3628271,-0.50538,-0.4912584,0.1392404,0.8382555,2.727529,18.76059,-41.59235,1001.47
1.208649635,-0.8038207,0.3628271,-0.50538,-0.4862729,0.1334961,0.8363829,2.727529,18.76059,-41.59235,1001.47
1.211146831,-0.7418586,0.3628271,-0.3829796,-0.4843374,0.1345023,0.835897,2.727529,18.76059,-41.59235,1001.47
1.213643551,-0.7418586,0.3628271,-0.4441798,-0.4854296,0.1407515,0.832987,2.727529,18.76059,-41.59235,1001.47
1.216142177,-0.8038207,0.4223864,-0.50538,-0.4931883,0.1377039,0.8354017,2.727529,18.76059,-41.59235,1001.47
1.218638420,-0.9277449,0.4819458,-0.5665802,-0.4897844,0.1387931,0.8387355,2.727529,18.76059,-41.59235,1001.47
1.221135616,-0.8038207,0.4223864,-0.3829796,-0.4882947,0.1373494,0.8373119,2.727529,18.76059,-41.59235,1001.47
1.223632812,-0.7418586,0.3032678,-0.5665802,-0.4896806,0.1329631,0.8382993,2.727529,18.76059,-41.59235,1001.47
1.226130009,-0.6179345,0.3628271,-0.6277804,-0.4911524,0.1334426,0.8402075,2.727529,18.76059,-41.59235,1001.47
1.228626728,-0.4940102,0.3032678,-0.6277804,-0.4911751,0.1343359,0.8344691,2.727529,18.76059,-41.59235,1001.47
1.231124401,-0.3700861,0.541505,-0.6277804,-0.4901773,0.1328301,0.8292249,2.727529,18.76059,-41.59235,1001.47
1.233621597,-0.4940102,0.6010644,-0.5665802,-0.4853323,0.135439,0.8349355,2.727529,18.76059,-41.59235,1001.47
1.236118793,-0.5559723,0.7797423,-0.4441798,-0.4848222,0.1345433,0.8397182,2.727529,18.76059,-41.59235,1001.47
1.238615990,-0.2461619,0.6606237,-0.3829796,-0.4902384,0.1368349,0.838272,2.353847,19.13005,-41.15154,1001.47
1.241113186,-0.308124,0.6010644,-0.2605792,-0.4863119,0.135987,0.8411418,2.353847,19.13005,-41.15154,1001.47
1.243609905,-0.308124,0.8393016,-0.3829796,-0.4878111,0.1379032,0.8416067,2.353847,19.13005,-41.15154,1001.47
1.246107578,-0.4320482,0.8393016,-0.3829796,-0.4920914,0.1309114,0.8340164,2.353847,19.13005,-41.15154,1001.47
1.248604774,-0.308124,0.4819458,-0.4441798,-0.4921395,0.1338812,0.8382943,2.353847,19.13005,-41.15154,1001.47
1.251101970,-0.1841998,0.7797423,-0.3829796,-0.4902219,0.1358515,0.8373237,2.353847,19.13005,-41.15154,1001.472
1.253599167,-0.1222377,0.8988609,-0.4441798,-0.4872793,0.1354872,0.8416236,2.353847,19.13005,-41.15154,1001.472
1.256096840,-0.1841998,1.01798,-0.50538,-0.4868184,0.1369342,0.84018,2.353847,19.13005,-41.15154,1001.472
1.258594036,-0.2461619,1.137098,-0.4441798,-0.4912719,0.1396548,0.8329982,2.353847,19.13005,-41.15154,1001.472
1.261090755,-0.3700861,1.196657,-0.199379,-0.4927342,0.139662,0.8358651,2.353847,19.13005,-41.15154,1001.472
1.263587951,-0.1841998,1.077539,-0.2605792,-0.4872553,0.1333914,0.8301746,2.353847,19.13005,-41.15154,1001.472
1.266085148,0.1256106,1.01798,-0.3829796,-0.4887541,0.1353139,0.831117,2.353847,19.13005,-41.15154,1001.472
1.268582344,0.3114969,1.315776,-0.3217794,-0.4849625,0.1422888,0.83823,2.353847,19.13005,-41.15154,1001.472
1.271080017,0.4973832,1.256217,-0.199379,-0.4820243,0.14186,0.8377537,2.353847,19.13005,-41.15154,1001.472
1.273577213,0.1256106,1.434895,-0.1381788,-0.4878462,0.1398379,0.8411152,2.353847,19.13005,-41.15154,1001.472
1.276073932,-0.1841998,1.256217,-0.199379,-0.4897899,0.1393235,0.8420753,2.353847,19.13005,-41.15154,1001.472
1.278571129,-0.4320482,1.137098,-0.3829796,-0.495068,0.1338375,0.8397292,2.353847,19.13005,-41.15154,1001.472
1.281068325,-0.308124,1.315776,-0.50538,-0.4969997,0.1322751,0.8349649,2.353847,19.13005,-41.15154,1001.472
1.283565521,0.06364854,1.256217,-0.3217794,-0.4980077,0.1336327,0.8292239,2.353847,19.13005,-41.15154,1001.472
1.286063194,0.00168645,1.256217,-0.3829796,-0.5009382,0.1341709,0.8378197,2.353847,19.13005,-41.15154,1001.472
1.288560390,-0.2461619,1.256217,-0.199379,-0.4960477,0.1337713,0.8363866,3.089201,19.16167,-40.32392,1001.472
1.291057587,0.1875727,1.137098,-0.1381788,-0.4980623,0.13712,0.8358863,3.089201,19.16167,-40.32392,1001.469
1.293554306,0.1256106,0.9584202,-0.2605792,-0.4927422,0.139546,0.8272679,3.089201,19.16167,-40.32392,1001.469
1.296051502,0.00168645,1.01798,-0.3217794,-0.4922381,0.1391743,0.8349129,3.089201,19.16167,-40.32392,1001.469
1.298549175,0.1256106,0.9584202,-0.2605792,-0.4941787,0.138705,0.8392164,3.089201,19.16167,-40.32392,1001.469
1.301046371,-0.1222377,0.8988609,-0.1381788,-0.4941341,0.1356837,0.8311176,3.089201,19.16167,-40.32392,1001.469
1.303543567,-0.1222377,1.01798,-0.1381788,-0.4950411,0.1323944,0.8406949,3.089201,19.16167,-40.32392,1001.469
1.306040764,-0.06027564,0.7797423,-0.2605792,-0.4956955,0.1409775,0.8301255,3.089201,19.16167,-40.32392,1001.469
1.308538437,0.06364854,0.7797423,-0.2605792,-0.4955665,0.1336788,0.8287444,3.089201,19.16167,-40.32392,1001.469
1.311034679,-0.1222377,0.6010644,-0.3217794,-0.4926153,0.1328292,0.8330477,3.089201,19.16167,-40.32392,1001.469
1.313532352,-0.4320482,0.4819458,-0.2605792,-0.4975089,0.1331837,0.8311374,3.089201,19.16167,-40.32392,1001.469
1.316029548,-0.4320482,0.4819458,-0.2605792,-0.4935708,0.1312814,0.827805,3.089201,19.16167,-40.32392,1001.469
1.318526745,-0.1841998,0.541505,-0.3217794,-0.498455,0.1317712,0.8359247,3.089201,19.16167,-40.32392,1001.469
1.321023941,-0.1222377,0.3628271,-0.1381788,-0.4995247,0.136513,0.8292042,3.089201,19.16167,-40.32392,1001.469
1.323521614,-0.3700861,0.1841492,0.04542181,-0.4960522,0.1337069,0.8316105,3.089201,19.16167,-40.32392,1001.469
1.326017856,-0.1222377,0.4819458,-0.1381788,-0.4966698,0.1409887,0.8325142,3.089201,19.16167,-40.32392,1001.469
1.328515529,-0.1841998,0.1841492,-0.1381788,-0.4941675,0.1376442,0.8325366,3.089201,19.16167,-40.32392,1001.469
1.331012726,-0.2461619,0.1245899,-0.01577839,-0.4941931,0.1391065,0.8330039,3.089201,19.16167,-40.32392,1001.469
1.333509922,-0.4320482,0.1841492,0.04542181,-0.4921206,0.1323222,0.8306627,3.089201,19.16167,-40.32392,1001.473
1.336007118,-0.3700861,-0.05408797,0.106622,-0.4984751,0.1327031,0.8330521,3.089201,19.16167,-40.32392,1001.473
1.338504791,-0.3700861,0.06503063,-0.07697859,-0.4975405,0.13517,0.8344669,2.353847,19.13005,-41.15154,1001.473
1.341001987,-0.6179345,-0.05408797,-0.3829796,-0.4990181,0.1355658,0.830166,2.353847,19.13005,-41.15154,1001.473
1.343498707,-0.6179345,-0.05408797,-0.199379,-0.49503,0.1313336,0.8340151,2.353847,19.13005,-41.15154,1001.473
1.345995903,-0.308124,-0.1732066,-0.1381788,-0.4959958,0.1302454,0.8268585,2.353847,19.13005,-41.15154,1001.473
1.348493099,-0.1841998,0.005471334,-0.01577839,-0.4936193,0.1342447,0.8316053,2.353847,19.13005,-41.15154,1001.473
1.350990772,-0.1841998,0.1245899,-0.01577839,-0.4936091,0.1343929,0.8425905,2.353847,19.13005,-41.15154,1001.473
1.353487968,-0.3700861,0.005471334,-0.1381788,-0.5024962,0.1389022,0.8310995,2.353847,19.13005,-41.15154,1001.473
1.355985164,-0.3700861,-0.05408797,-0.199379,-0.4979334,0.1298212,0.8345053,2.353847,19.13005,-41.15154,1001.473
1.358481884,-0.308124,-0.1136473,-0.01577839,-0.4941283,0.1357674,0.8373266,2.353847,19.13005,-41.15154,1001.473
1.360979080,-0.3700861,-0.1732066,0.04542181,-0.4985693,0.1380607,0.8344469,2.353847,19.13005,-41.15154,1001.473
1.363476276,-0.3700861,-0.1136473,-0.01577839,-0.4951811,0.1395322,0.8301355,2.353847,19.13005,-41.15154,1001.473
1.365973949,0.1256106,0.1245899,0.04542181,-0.4892283,0.1348954,0.8368523,2.353847,19.13005,-41.15154,1001.473
1.368471145,0.1875727,0.1245899,0.04542181,-0.4905969,0.1295385,0.8378467,2.353847,19.13005,-41.15154,1001.473
1.370968342,0.00168645,0.1841492,0.106622,-0.4970914,0.1370572,0.8296765,2.353847,19.13005,-41.15154,1001.473
1.373465538,-0.06027564,0.06503063,0.04542181,-0.4961512,0.1389936,0.8277515,2.353847,19.13005,-41.15154,1001.471
1.375962257,0.00168645,-0.2923252,-0.07697859,-0.4906472,0.1324761,0.8397364,2.353847,19.13005,-41.15154,1001.471
1.378459453,-0.1841998,-0.1136473,0.1678222,-0.4916309,0.132352,0.8320953,2.353847,19.13005,-41.15154,1001.471
1.380957126,-0.1841998,-0.1732066,0.1678222,-0.4956861,0.139891,0.8215352,2.353847,19.13005,-41.15154,1001.471
1.383454323,-0.1222377,-0.1732066,-0.01577839,-0.489825,0.1400363,0.8229637,2.353847,19.13005,-41.15154,1001.471
1.385951519,0.1875727,-0.05408797,-0.07697859,-0.4819449,0.1375117,0.8392177,2.353847,19.13005,-41.15154,1001.471
1.388448715,0.06364854,-0.1136473,0.2290224,-0.4853922,0.138849,0.8358666,2.354011,19.13854,-40.70508,1001.471
1.390946865,0.00168645,0.06503063,-0.199379,-0.4897692,0.1377903,0.8363543,2.354011,19.13854,-40.70508,1001.471
1.393443107,-0.3700861,-0.3518845,0.04542181,-0.4916795,0.1353153,0.8358955,2.354011,19.13854,-40.70508,1001.471
1.395940304,-0.2461619,-0.1732066,0.04542181,-0.489689,0.1328406,0.8292246,2.354011,19.13854,-40.70508,1001.471
1.398437500,0.00168645,-0.2327659,0.04542181,-0.4941103,0.1341956,0.8287399,2.354011,19.13854,-40.70508,1001.471
1.400934696,0.06364854,-0.2327659,0.1678222,-0.493082,0.1312983,0.8282823,2.354011,19.13854,-40.70508,1001.471
1.403432369,0.1256106,-0.1732066,0.1678222,-0.4941081,0.1342278,0.8311279,2.354011,19.13854,-40.70508,1001.471
1.405929565,0.00168645,-0.1732066,0.2902226,-0.4935759,0.1318182,0.8316225,2.354011,19.13854,-40.70508,1001.471
1.408426285,0.06364854,-0.4114438,0.2902226,-0.4966247,0.138588,0.834442,2.354011,19.13854,-40.70508,1001.471
1.410923481,0.1875727,-0.2327659,0.2902226,-0.4926852,0.1367051,0.8325425,2.354011,19.13854,-40.70508,1001.471
1.413420677,0.06364854,-0.1732066,0.1678222,-0.4965312,0.1338317,0.8416408,2.354011,19.13854,-40.70508,1001.474
1.415917873,0.1875727,-0.2327659,0.2902226,-0.4990116,0.1350482,0.8277813,2.354011,19.13854,-40.70508,1001.474
1.418415546,0.3114969,-0.2327659,0.2902226,-0.493595,0.1327631,0.8297051,2.354011,19.13854,-40.70508,1001.474
1.420912742,0.1875727,-0.4710031,0.2290224,-0.4941722,0.1381875,0.8368317,2.354011,19.13854,-40.70508,1001.474
1.423409462,-0.06027564,-0.2327659,0.3514228,-0.496585,0.1367177,0.8397096,2.354011,19.13854,-40.70508,1001.474
1.425906658,-0.06027564,-0.1732066,0.412623,-0.4970115,0.1327153,0.8316181,2.354011,19.13854,-40.70508,1001.474
1.428403854,0.1256106,-0.2923252,0.412623,-0.49165,0.1332968,0.8301779,2.354011,19.13854,-40.70508,1001.474
1.430901050,0.4354211,-0.3518845,0.412623,-0.4896525,0.1309252,0.8311489,2.354011,19.13854,-40.70508,1001.474
1.433398723,0.4354211,-0.4710031,0.412623,-0.489698,0.1339337,0.8382924,2.354011,19.13854,-40.70508,1001.474
1.435895920,0.373459,-0.3518845,0.412623,-0.4946367,0.1366889,0.8344544,2.354011,19.13854,-40.70508,1001.474
1.438393116,0.3114969,-0.05408797,0.5350235,-0.4937126,0.1396152,0.8339553,2.353847,19.13005,-41.15154,1001.474
1.440889835,0.2495348,-0.3518845,0.5962236,-0.4990853,0.1394804,0.8325264,2.353847,19.13005,-41.15154,1001.474
1.443387031,0.3114969,-0.4710031,0.412623,-0.4976006,0.1379657,0.825849,2.353847,19.13005,-41.15154,1001.474
1.445884704,0.2495348,-0.3518845,0.2902226,-0.4936783,0.1376676,0.8334915,2.353847,19.13005,-41.15154,1001.474
1.448381901,0.1875727,-0.4114438,0.2902226,-0.487249,0.1334816,0.8368612,2.353847,19.13005,-41.15154,1001.474
1.450879097,0.00168645,-0.5305623,0.4738232,-0.4936093,0.1337788,0.8330415,2.353847,19.13005,-41.15154,1001.474
1.453376293,0.2495348,-0.3518845,0.5350235,-0.4896147,0.1290291,0.834506,2.353847,19.13005,-41.15154,1001.472
1.455873012,0.373459,-0.2923252,0.5350235,-0.4901538,0.1319498,0.8359185,2.353847,19.13005,-41.15154,1001.472
1.458370209,0.373459,-0.5901216,0.4738232,-0.4873368,0.1383216,0.8358715,2.353847,19.13005,-41.15154,1001.472
1.460867882,0.373459,-0.3518845,0.2902226,-0.4833925,0.1365096,0.8392257,2.353847,19.13005,-41.15154,1001.472
1.463365078,0.3114969,-0.3518845,0.5962236,-0.4917354,0.1387833,0.8411251,2.353847,19.13005,-41.15154,1001.472
1.465862274,0.1256106,-0.4114438,0.4738232,-0.4878037,0.1373985,0.8401772,2.353847,19.13005,-41.15154,1001.472
1.468359470,0.1875727,-0.5901216,0.3514228,-0.4907966,0.1407004,0.8377671,2.353847,19.13005,-41.15154,1001.472
1.470857143,0.3114969,-0.6496809,0.1678222,-0.4903054,0.1401418,0.8315612,2.353847,19.13005,-41.15154,1001.472
1.473353386,-0.06027564,-0.5901216,0.2290224,-0.4892818,0.1377879,0.8353987,2.353847,19.13005,-41.15154,1001.472
1.475851059,-0.06027564,-0.5305623,0.2902226,-0.4902967,0.1396565,0.8315647,2.353847,19.13005,-41.15154,1001.472
1.478348255,-0.06027564,-0.6496809,0.2902226,-0.490726,0.1362232,0.8296787,2.353847,19.13005,-41.15154,1001.472
1.480845451,-0.1222377,-0.5901216,0.2902226,-0.4863646,0.1382782,0.8310945,2.353847,19.13005,-41.15154,1001.472
1.483342647,0.00168645,-0.7092403,0.2290224,-0.4902604,0.137127,0.82394,2.353847,19.13005,-41.15154,1001.472
1.485840320,0.1256106,-0.7687995,0.1678222,-0.4854556,0.1422074,0.8329766,2.353847,19.13005,-41.15154,1001.472
1.488337040,0.00168645,-0.5901216,0.1678222,-0.4898518,0.1420935,0.831547,2.721371,19.13797,-41.15231,1001.472
1.490834236,0.00168645,-0.6496809,0.2902226,-0.489846,0.1421773,0.837756,2.721371,19.13797,-41.15231,1001.472
1.493331432,-0.06027564,-0.8283588,0.106622,-0.4893194,0.1402981,0.8415905,2.721371,19.13797,-41.15231,1001.474
1.495828628,-0.1841998,-0.7092403,0.04542181,-0.4908075,0.1411534,0.8353756,2.721371,19.13797,-41.15231,1001.474
1.498326301,-0.308124,-0.7092403,0.04542181,-0.4898184,0.140133,0.830128,2.721371,19.13797,-41.15231,1001.474
1.500823498,-0.2461619,-0.7092403,-0.1381788,-0.4917924,0.1416242,0.8358505,2.721371,19.13797,-41.15231,1001.474
1.503322601,-0.2461619,-0.5305623,-0.01577839,-0.4927382,0.139604,0.8315665,2.721371,19.13797,-41.15231,1001.474
1.505817413,-0.2461619,-0.5901216,-0.07697859,-0.491248,0.1387809,0.8401694,2.721371,19.13797,-41.15231,1001.474
1.508314609,-0.1841998,-0.6496809,-0.3217794,-0.4921882,0.1362303,0.8325456,2.721371,19.13797,-41.15231,1001.474
1.510811806,-0.2461619,-0.4710031,-0.01577839,-0.4922508,0.1396016,0.8306109,2.721371,19.13797,-41.15231,1001.474
1.513309479,-0.06027564,-0.6496809,-0.01577839,-0.4931905,0.1376716,0.8330135,2.721371,19.13797,-41.15231,1001.474
1.515806675,-0.1222377,-0.6496809,-0.1381788,-0.4883005,0.1372656,0.8311028,2.721371,19.13797,-41.15231,1001.474
1.518303871,-0.308124,-0.5901216,-0.199379,-0.4931166,0.1338537,0.8378174,2.721371,19.13797,-41.15231,1001.474
1.520800590,-0.308124,-0.5305623,-0.3217794,-0.4892947,0.1388229,0.8401679,2.721371,19.13797,-41.15231,1001.474
1.523297787,-0.3700861,-0.6496809,-0.01577839,-0.489767,0.1378225,0.8387424,2.721371,19.13797,-41.15231,1001.474
1.525794983,-0.3700861,-0.6496809,-0.1381788,-0.4950669,0.1332426,0.8316132,2.721371,19.13797,-41.15231,1001.474
1.528292656,-0.4940102,-0.6496809,-0.2605792,-0.4912121,0.1362449,0.8320673,2.721371,19.13797,-41.15231,1001.474
1.530789852,-0.308124,-0.6496809,-0.07697859,-0.4872831,0.1348215,0.8282537,2.721371,19.13797,-41.15231,1001.474
1.533287048,-0.2461619,-0.5305623,-0.3217794,-0.4935997,0.1333064,0.8340002,2.721371,19.13797,-41.15231,1001.473
1.535784244,-0.1841998,-0.6496809,-0.199379,-0.4917342,0.1381884,0.833009,2.721371,19.13797,-41.15231,1001.473
1.538280964,-0.1841998,-0.6496809,-0.01577839,-0.4922056,0.1372009,0.8325387,2.721677,19.15375,-40.32315,1001.473
1.540778637,-0.308124,-0.7092403,-0.199379,-0.4910761,0.1290492,0.8383281,2.721677,19.15375,-40.32315,1001.473
1.543275833,-0.4320482,-0.6496809,-0.199379,-0.4891836,0.1324883,0.8383024,2.721677,19.15375,-40.32315,1001.473
1.545773029,-0.308124,-0.3518845,-0.1381788,-0.4921083,0.1318884,0.8344871,2.721677,19.15375,-40.32315,1001.473
1.548270225,-0.1222377,-0.4114438,-0.199379,-0.49661,0.1375788,0.8315832,2.721677,19.15375,-40.32315,1001.473
1.550767422,-0.1222377,-0.5305623,-0.07697859,-0.4941613,0.1377344,0.8392233,2.721677,19.15375,-40.32315,1001.473
1.553264141,-0.1841998,-0.3518845,-0.07697859,-0.4916577,0.1344092,0.8406786,2.721677,19.15375,-40.32315,1001.473
1.555761814,-0.2461619,-0.4710031,-0.1381788,-0.4897692,0.1377903,0.8363543,2.721677,19.15375,-40.32315,1001.473
1.558259010,-0.1222377,-0.4114438,0.106622,-0.4892067,0.1333751,0.8320865,2.721677,19.15375,-40.32315,1001.473
1.560756206,0.06364854,-0.5901216,-0.01577839,-0.492168,0.1346907,0.8263469,2.721677,19.15375,-40.32315,1001.473
1.563253403,-0.1222377,-0.6496809,-0.01577839,-0.4917008,0.1362279,0.83159,2.721677,19.15375,-40.32315,1001.473
1.565751076,0.00168645,-0.5305623,-0.1381788,-0.4965205,0.1327645,0.8344834,2.721677,19.15375,-40.32315,1001.473
1.568248272,0.00168645,-0.4710031,-0.1381788,-0.4941159,0.134726,0.8320798,2.721677,19.15375,-40.32315,1001.473
1.570744991,-0.1222377,-0.4114438,-0.01577839,-0.4888173,0.1392865,0.8377761,2.721677,19.15375,-40.32315,1001.473
1.573242187,-0.1222377,-0.5901216,-0.07697859,-0.4970266,0.1337181,0.8339993,2.721677,19.15375,-40.32315,1001.473
1.575739384,-0.4320482,-0.5901216,-0.2605792,-0.4900814,0.1274983,0.8297406,2.721677,19.15375,-40.32315,1001.473
1.578241348,-0.2461619,-0.4114438,-0.01577839,-0.4901927,0.1344407,0.8406774,2.721677,19.15375,-40.32315,1001.473
1.580734253,-0.1841998,-0.4710031,0.04542181,-0.4917454,0.1392493,0.8396887,2.721677,19.15375,-40.32315,1001.473
1.583231449,-0.3700861,-0.4710031,-0.199379,-0.4903319,0.1415913,0.8310732,2.721677,19.15375,-40.32315,1001.473
1.585728645,-0.308124,-0.4114438,-0.3217794,-0.4907527,0.1382803,0.838262,2.721677,19.15375,-40.32315,1001.473
1.588225365,-0.1841998,-0.2923252,-0.3217794,-0.4873368,0.1383216,0.8358715,2.353847,19.13005,-41.15154,1001.473
1.590722561,-0.2461619,-0.7092403,-0.199379,-0.4877336,0.1329149,0.8316113,2.353847,19.13005,-41.15154,1001.473
1.593219757,-0.308124,-0.6496809,-0.199379,-0.4937596,0.1419902,0.8301171,2.353847,19.13005,-41.15154,1001.473
1.595717430,-0.3700861,-0.5901216,-0.2605792,-0.4897875,0.138748,0.8353922,2.353847,19.13005,-41.15154,1001.473
1.598214626,-0.308124,-0.3518845,-0.199379,-0.4896272,0.1300706,0.8397529,2.353847,19.13005,-41.15154,1001.473
1.600711822,-0.1841998,-0.4710031,-0.1381788,-0.4906924,0.1348768,0.8378086,2.353847,19.13005,-41.15154,1001.473
1.603208542,-0.308124,-0.5305623,-0.199379,-0.4868119,0.1364167,0.8377954,2.353847,19.13005,-41.15154,1001.473
1.605705738,-0.4320482,-0.4710031,-0.1381788,-0.4926657,0.1357667,0.8349375,2.353847,19.13005,-41.15154,1001.473
1.608203411,-0.1222377,-0.4710031,-0.2605792,-0.4892813,0.1377943,0.8358763,2.353847,19.13005,-41.15154,1001.473
1.610700607,-0.06027564,-0.5305623,-0.3217794,-0.4912459,0.1381989,0.8330086,2.353847,19.13005,-41.15154,1001.473
1.613197803,-0.06027564,-0.4114438,-0.3217794,-0.488783,0.1373389,0.8373123,2.353847,19.13005,-41.15154,1001.472
1.615697384,-0.1222377,-0.2327659,-0.3217794,-0.4911976,0.1358434,0.8382797,2.353847,19.13005,-41.15154,1001.472
1.618192673,-0.308124,-0.3518845,-0.3829796,-0.4902641,0.1376831,0.8291904,2.353847,19.13005,-41.15154,1001.472
1.620688915,-0.308124,-0.5305623,-0.3829796,-0.4903165,0.1412026,0.8382409,2.353847,19.13005,-41.15154,1001.472
1.623186588,-0.1222377,-0.5305623,-0.3217794,-0.4888298,0.140328,0.8430229,2.353847,19.13005,-41.15154,1001.472
1.625683784,-0.3700861,-0.3518845,-0.3829796,-0.4906997,0.1353814,0.839238,2.353847,19.13005,-41.15154,1001.472
1.628180981,-0.5559723,-0.4710031,-0.3829796,-0.4858797,0.1388513,0.8368221,2.353847,19.13005,-41.15154,1001.472
1.630678177,-0.3700861,-0.2923252,-0.6277804,-0.4858427,0.1369424,0.8392241,2.353847,19.13005,-41.15154,1001.472
1.633175850,-0.1222377,-0.3518845,-0.4441798,-0.4877291,0.1329793,0.8363874,2.353847,19.13005,-41.15154,1001.472
1.635672092,-0.3700861,-0.3518845,-0.4441798,-0.4891894,0.1324045,0.8320934,2.353847,19.13005,-41.15154,1001.472
1.638169765,-0.4320482,-0.1732066,-0.5665802,-0.4903078,0.1407173,0.8382444,2.360169,18.76116,-41.14512,1001.472
1.640666962,-0.3700861,-0.4114438,-0.5665802,-0.4887748,0.1368471,0.8368381,2.360169,18.76116,-41.14512,1001.472
1.643164158,-0.3700861,-0.3518845,-0.4441798,-0.4893014,0.1387263,0.8330037,2.360169,18.76116,-41.14512,1001.472
1.645661354,-0.3700861,-0.4114438,-0.3829796,-0.494241,0.1414686,0.8282104,2.360169,18.76116,-41.14512,1001.472
1.648159027,-0.308124,-0.4114438,-0.50538,-0.4878498,0.1397864,0.8372943,2.360169,18.76116,-41.14512,1001.472
1.650656223,0.06364854,-0.3518845,-0.50538,-0.4868502,0.1383064,0.8339606,2.360169,18.76116,-41.14512,1001.472
1.653152943,-0.1222377,-0.3518845,-0.6277804,-0.4882822,0.1363079,0.832065,2.360169,18.76116,-41.14512,1001.468
1.655650139,-0.3700861,-0.2923252,-0.7501808,-0.4893372,0.1412623,0.8411059,2.360169,18.76116,-41.14512,1001.468
1.658147335,-0.4320482,-0.2923252,-0.5665802,-0.4922468,0.1396596,0.8349094,2.360169,18.76116,-41.14512,1001.468
1.660645008,-0.3700861,-0.4114438,-0.6277804,-0.4868003,0.1353624,0.8315933,2.360169,18.76116,-41.14512,1001.468
1.663142204,-0.4940102,-0.2327659,-0.6889806,-0.4887565,0.1358894,0.8378003,2.360169,18.76116,-41.14512,1001.468
1.665639400,-0.5559723,-0.3518845,-0.5665802,-0.4853323,0.135439,0.8349355,2.360169,18.76116,-41.14512,1001.468
1.668136120,-0.4320482,-0.2923252,-0.50538,-0.4823907,0.1350618,0.8382801,2.360169,18.76116,-41.14512,1001.468
1.670633316,-0.3700861,0.06503063,-0.5665802,-0.4915544,0.1285727,0.8397648,2.360169,18.76116,-41.14512,1001.468
1.673130512,-0.3700861,-0.05408797,-0.6889806,-0.4915918,0.1304752,0.8368852,2.360169,18.76116,-41.14512,1001.468
1.675628185,-0.4320482,-0.2923252,-0.6889806,-0.4896623,0.1320054,0.8392615,2.360169,18.76116,-41.14512,1001.468
1.678125381,-0.308124,0.005471334,-0.6277804,-0.4876931,0.1310575,0.8378341,2.360169,18.76116,-41.14512,1001.468
1.680622578,-0.308124,0.005471334,-0.4441798,-0.4882041,0.1319402,0.8320962,2.360169,18.76116,-41.14512,1001.468
1.683119774,-0.4320482,-0.1136473,-0.5665802,-0.4872786,0.1348859,0.8330299,2.360169,18.76116,-41.14512,1001.468
1.685616493,-0.3700861,-0.1732066,-0.5665802,-0.485252,0.1311035,0.8373547,2.360169,18.76116,-41.14512,1001.468
1.688113689,-0.2461619,-0.2923252,-0.5665802,-0.4906625,0.1328647,0.8325687,2.360333,18.76966,-40.69865,1001.468
1.690611362,-0.3700861,-0.1732066,-0.50538,-0.4892353,0.1354065,0.8387593,2.360333,18.76966,-40.69865,1001.468
1.693108559,-0.308124,-0.1136473,-0.5665802,-0.4863575,0.1383813,0.8387364,2.360333,18.76966,-40.69865,1001.468
1.695605755,-0.7418586,0.005471334,-0.50538,-0.4882579,0.1348262,0.830165,2.360333,18.76966,-40.69865,1001.47
1.698102951,-0.5559723,-0.2327659,-0.5665802,-0.4887314,0.1344206,0.8368554,2.360333,18.76966,-40.69865,1001.47
1.700600624,-0.5559723,-0.1136473,-0.6277804,-0.4852277,0.1296219,0.8354546,2.360333,18.76966,-40.69865,1001.47
1.703101635,-0.6179345,-0.1136473,-0.6889806,-0.4852836,0.1330898,0.8406842,2.360333,18.76966,-40.69865,1001.47
1.705594540,-0.4940102,-0.2923252,-0.7501808,-0.4902827,0.1392485,0.8372995,2.360333,18.76966,-40.69865,1001.47
1.708091736,-0.6179345,-0.1136473,-0.5665802,-0.4867897,0.135517,0.8430561,2.360333,18.76966,-40.69865,1001.47
1.710588932,-0.5559723,0.005471334,-0.5665802,-0.4829347,0.1379116,0.8344387,2.360333,18.76966,-40.69865,1001.47
1.713086605,-0.5559723,-0.1732066,-0.6277804,-0.4892484,0.1358274,0.8339797,2.360333,18.76966,-40.69865,1001.47
1.715583801,-0.5559723,-0.1136473,-0.5665802,-0.4868438,0.1377889,0.831576,2.360333,18.76966,-40.69865,1001.47
1.718080521,-0.7418586,0.06503063,-0.6277804,-0.4869344,0.143198,0.8367917,2.360333,18.76966,-40.69865,1001.47
1.720577717,-0.4320482,0.005471334,-0.5665802,-0.4863927,0.1403161,0.838245,2.360333,18.76966,-40.69865,1001.47
1.723074913,-0.4940102,-0.1136473,-0.6889806,-0.4901764,0.132843,0.8301802,2.360333,18.76966,-40.69865,1001.47
1.725572109,-0.6179345,-0.1732066,-0.6277804,-0.4881976,0.1314227,0.8297115,2.360333,18.76966,-40.69865,1001.47
1.728069782,-0.5559723,-0.05408797,-0.5665802,-0.4901095,0.1295362,0.8368911,2.360333,18.76966,-40.69865,1001.47
1.730566978,-0.6179345,-0.2327659,-0.6277804,-0.4873312,0.1377912,0.8325316,2.360333,18.76966,-40.69865,1001.47
1.733064175,-0.7418586,-0.3518845,-0.6277804,-0.4912085,0.1362964,0.8358882,2.360333,18.76966,-40.69865,1001.47
1.735560894,-0.6179345,-0.1732066,-0.6277804,-0.4862342,0.1316129,0.8406953,2.360333,18.76966,-40.69865,1001.467
1.738058090,-0.6798965,-0.1732066,-0.7501808,-0.4878042,0.1373921,0.8396996,2.727529,18.76059,-41.59235,1001.467
1.740555286,-0.5559723,-0.1732066,-0.8725812,-0.4886911,0.131949,0.8335294,2.727529,18.76059,-41.59235,1001.467
1.743052959,-0.6179345,-0.05408797,-0.811381,-0.4881801,0.1310663,0.8392674,2.727529,18.76059,-41.59235,1001.467
1.745550156,-0.7418586,-0.1136473,-0.6889806,-0.4902145,0.1353468,0.8358943,2.727529,18.76059,-41.59235,1001.467
1.748047352,-0.6179345,-0.1136473,-0.6277804,-0.4897385,0.1357911,0.8320696,2.727529,18.76059,-41.59235,1001.467
1.750544071,-0.6179345,-0.1732066,-0.6889806,-0.4857621,0.1319992,0.832572,2.727529,18.76059,-41.59235,1001.467
1.753041267,-0.6179345,-0.2327659,-0.6889806,-0.4858204,0.1348208,0.8258646,2.727529,18.76059,-41.59235,1001.467
1.755538940,-0.6798965,-0.1732066,-0.6889806,-0.4883408,0.1397372,0.8344289,2.727529,18.76059,-41.59235,1001.467
1.758036137,-0.4940102,-0.1136473,-0.6889806,-0.4897367,0.1358169,0.83398,2.727529,18.76059,-41.59235,1001.467
1.760533333,-0.5559723,0.06503063,-0.6889806,-0.4862326,0.1310245,0.8330569,2.727529,18.76059,-41.59235,1001.467
1.763030529,-0.7418586,0.005471334,-0.7501808,-0.4906746,0.1339127,0.8382932,2.727529,18.76059,-41.59235,1001.467
1.765532494,-0.8038207,-0.05408797,-0.7501808,-0.4907077,0.1352655,0.8306409,2.727529,18.76059,-41.59235,1001.467
1.768024445,-0.6179345,-0.05408797,-0.7501808,-0.4877296,0.1329729,0.8359098,2.727529,18.76059,-41.59235,1001.467
1.770522118,-0.6179345,-0.2923252,-0.5665802,-0.4912198,0.1367431,0.833019,2.727529,18.76059,-41.59235,1001.467
1.773019314,-0.6798965,-0.05408797,-0.6889806,-0.4920901,0.1309307,0.8354493,2.727529,18.76059,-41.59235,1001.467
1.775516510,-0.5559723,-0.1732066,-0.7501808,-0.483853,0.135069,0.8411469,2.727529,18.76059,-41.59235,1001.469
1.778013706,-0.6179345,-0.2327659,-0.6889806,-0.4883143,0.1382878,0.8349169,2.727529,18.76059,-41.59235,1001.469
1.780511379,-0.8038207,-0.2327659,-0.50538,-0.4873499,0.1387425,0.8310918,2.727529,18.76059,-41.59235,1001.469
1.783007622,-0.8657828,-0.3518845,-0.811381,-0.4892773,0.1378523,0.8401749,2.727529,18.76059,-41.59235,1001.469
1.785505295,-0.9277449,-0.1136473,-0.7501808,-0.4858267,0.1359524,0.8377981,2.727529,18.76059,-41.59235,1001.469
1.788002491,-1.113631,-0.2327659,-0.811381,-0.4829221,0.1368701,0.8291919,2.354011,19.13854,-40.70508,1001.469
1.790499687,-1.113631,-0.4114438,-0.7501808,-0.4847975,0.1330681,0.8382958,2.354011,19.13854,-40.70508,1001.469
1.792996883,-0.9897069,-0.3518845,-0.9337814,-0.4911595,0.1333395,0.8325656,2.354011,19.13854,-40.70508,1001.469
1.795494556,-0.8657828,-0.2327659,-0.8725812,-0.4878204,0.1377679,0.8315767,2.354011,19.13854,-40.70508,1001.469
1.797991753,-0.8657828,-0.4710031,-0.9949816,-0.4907796,0.1397233,0.8372964,2.354011,19.13854,-40.70508,1001.469
1.800488472,-0.8038207,-0.2327659,-0.8725812,-0.4868939,0.1413406,0.8430146,2.354011,19.13854,-40.70508,1001.469
1.802985668,-1.175593,-0.1136473,-0.9337814,-0.4883568,0.1407271,0.8358549,2.354011,19.13854,-40.70508,1001.469
1.805482864,-1.423442,-0.2327659,-1.056182,-0.4852967,0.1335107,0.8359046,2.354011,19.13854,-40.70508,1001.469
1.807980537,-1.547366,-0.2327659,-1.117382,-0.4857637,0.1325876,0.8402104,2.354011,19.13854,-40.70508,1001.469
1.810477734,-1.547366,-0.2923252,-1.056182,-0.4901373,0.1309663,0.8349702,2.354011,19.13854,-40.70508,1001.469
1.812974930,-1.299517,-0.2923252,-0.9949816,-0.4832622,0.1292301,0.8392776,2.354011,19.13854,-40.70508,1001.469
1.815471649,-1.36148,-0.2327659,-0.9949816,-0.4851291,0.1243287,0.838836,2.354011,19.13854,-40.70508,1001.468
1.817968845,-1.237555,-0.2923252,-0.9337814,-0.4846904,0.1266755,0.8321317,2.354011,19.13854,-40.70508,1001.468
1.820466042,-1.113631,-0.2327659,-0.8725812,-0.4823929,0.1350296,0.835892,2.354011,19.13854,-40.70508,1001.468
1.822963715,-1.113631,-0.1136473,-0.7501808,-0.4888309,0.1397009,0.8325188,2.354011,19.13854,-40.70508,1001.468
1.825460911,-0.9277449,-0.2327659,-0.9949816,-0.4932117,0.1391984,0.838257,2.354011,19.13854,-40.70508,1001.468
1.827958107,-1.113631,-0.2923252,-0.8725812,-0.4809852,0.1385097,0.8396876,2.354011,19.13854,-40.70508,1001.468
1.830455303,-1.547366,-0.1732066,-1.056182,-0.4928631,0.1469608,0.837246,2.354011,19.13854,-40.70508,1001.468
1.832952023,-1.547366,0.005471334,-1.178582,-0.4917107,0.1373081,0.8397025,2.354011,19.13854,-40.70508,1001.468
1.835449219,-1.67129,-0.1732066,-1.178582,-0.4881653,0.130057,0.8364085,2.354011,19.13854,-40.70508,1001.468
1.837946892,-1.795214,-0.1732066,-0.8725812,-0.4917055,0.1367712,0.8358851,2.353682,19.12155,-41.59801,1001.468
1.840444088,-1.67129,-0.2923252,-1.178582,-0.4897064,0.1338113,0.8292177,2.353682,19.12155,-41.59801,1001.468
1.842941284,-1.485404,-0.1732066,-1.117382,-0.4925152,0.1281695,0.8474109,2.353682,19.12155,-41.59801,1001.468
1.845438480,-1.423442,-0.1136473,-1.056182,-0.4944756,0.1280244,0.8397704,2.353682,19.12155,-41.59801,1001.468
1.847936153,-1.609328,-0.2923252,-0.8725812,-0.490517,0.1251966,0.8397883,2.353682,19.12155,-41.59801,1001.468
1.850432873,-1.795214,-0.05408797,-0.8725812,-0.489134,0.130152,0.8450064,2.353682,19.12155,-41.59801,1001.468
1.852930069,-1.795214,-0.05408797,-0.6277804,-0.4887476,0.1347964,0.8287324,2.353682,19.12155,-41.59801,1001.468
1.855427265,-1.237555,-0.1732066,-0.811381,-0.4862175,0.1300217,0.8306757,2.353682,19.12155,-41.59801,1001.47
1.857924461,-1.175593,-0.05408797,-0.7501808,-0.4856869,0.1282006,0.8388087,2.353682,19.12155,-41.59801,1001.47
1.860422134,-1.423442,-0.1732066,-0.811381,-0.4887012,0.1336369,0.8507133,2.353682,19.12155,-41.59801,1001.47
1.862919331,-1.485404,-0.1136473,-0.811381,-0.4882421,0.134444,0.8378103,2.353682,19.12155,-41.59801,1001.47
1.865416050,-1.609328,-0.05408797,-0.9949816,-0.4902076,0.1348358,0.8339873,2.353682,19.12155,-41.59801,1001.47
1.867913246,-1.485404,-0.05408797,-0.9337814,-0.4877866,0.1358138,0.8306352,2.353682,19.12155,-41.59801,1001.47
1.870410442,-1.299517,0.06503063,-0.9337814,-0.4857664,0.1325489,0.8373447,2.353682,19.12155,-41.59801,1001.47
1.872907639,-1.36148,-0.1732066,-0.9337814,-0.490115,0.1300665,0.8402309,2.353682,19.12155,-41.59801,1001.47
1.875405312,-1.547366,-0.4114438,-0.9337814,-0.4926291,0.1338513,0.8368617,2.353682,19.12155,-41.59801,1001.47
1.877902508,-1.547366,-0.2327659,-0.811381,-0.4936665,0.1372274,0.8368382,2.353682,19.12155,-41.59801,1001.47
1.880399704,-1.175593,-0.1732066,-0.9337814,-0.4902323,0.136311,0.8354098,2.353682,19.12155,-41.59801,1001.47
1.882896423,-1.175593,-0.4114438,-1.117382,-0.489631,0.1306268,0.8450033,2.353682,19.12155,-41.59801,1001.47
1.885393620,-1.485404,-0.2327659,-0.8725812,-0.4895824,0.1276635,0.8412032,2.353682,19.12155,-41.59801,1001.47
1.887890816,-1.485404,-0.1136473,-0.7501808,-0.49349,0.1269524,0.8307018,2.727694,18.76908,-41.14589,1001.47
1.890388489,-0.9897069,-0.3518845,-0.7501808,-0.4900832,0.1274726,0.8278301,2.727694,18.76908,-41.14589,1001.47
1.892885685,-0.7418586,-0.2327659,-0.6277804,-0.4890685,0.1262116,0.8407355,2.727694,18.76908,-41.14589,1001.47
1.895382881,-0.8038207,-0.05408797,-0.6889806,-0.4949944,0.1294053,0.8349842,2.727694,18.76908,-41.14589,1001.468
1.897879601,-0.8657828,-0.1136473,-0.6277804,-0.4945929,0.1342688,0.8349493,2.727694,18.76908,-41.14589,1001.468
1.900376797,-0.8038207,-0.2327659,-0.8725812,-0.4954835,0.129382,0.8340293,2.727694,18.76908,-41.14589,1001.468
1.902877331,-0.6798965,-0.2923252,-0.811381,-0.4901173,0.1300343,0.8378429,2.727694,18.76908,-41.14589,1001.468
1.905371666,-0.8038207,-0.1732066,-0.5665802,-0.4862168,0.1306423,0.8407022,2.727694,18.76908,-41.14589,1001.468
1.907868862,-0.8038207,-0.1136473,-0.6277804,-0.4852003,0.1281853,0.8368978,2.727694,18.76908,-41.14589,1001.468
1.910366058,-0.6179345,-0.1732066,-0.6277804,-0.4920945,0.1308663,0.8306731,2.727694,18.76908,-41.14589,1001.468
1.912863255,-0.5559723,-0.1136473,-0.6889806,-0.4852916,0.1329738,0.8320871,2.727694,18.76908,-41.14589,1001.468
1.915359974,-0.4320482,-0.2327659,-0.7501808,-0.4910696,0.1285317,0.8359435,2.727694,18.76908,-41.14589,1001.468
1.917857647,-0.4320482,-0.3518845,-0.5665802,-0.4896528,0.131533,0.8402202,2.727694,18.76908,-41.14589,1001.468
1.920354843,-0.5559723,-0.3518845,-0.5665802,-0.4824163,0.1365241,0.8387473,2.727694,18.76908,-41.14589,1001.468
1.922852039,-0.4940102,-0.5305623,-0.50538,-0.4847993,0.1330423,0.8363853,2.727694,18.76908,-41.14589,1001.468
1.925349236,-0.4320482,-0.4710031,-0.6889806,-0.4858285,0.1359267,0.8358877,2.727694,18.76908,-41.14589,1001.468
1.927847385,-0.6179345,-0.4114438,-0.811381,-0.4858376,0.1364055,0.8354066,2.727694,18.76908,-41.14589,1001.468
1.930343151,-0.6179345,-0.4114438,-0.8725812,-0.4824176,0.1365048,0.8373145,2.727694,18.76908,-41.14589,1001.468
1.932840824,-0.7418586,-0.5305623,-0.9949816,-0.4804076,0.1330918,0.8330387,2.727694,18.76908,-41.14589,1001.468
1.935338020,-0.6179345,-0.4114438,-0.9337814,-0.4858502,0.1368328,0.8311045,2.727694,18.76908,-41.14589,1001.471
1.937835217,-0.6179345,-0.4114438,-0.8725812,-0.4814361,0.1365967,0.8425676,2.715048,19.50686,-41.15873,1001.471
1.940333843,-0.5559723,-0.2923252,-0.9337814,-0.4842787,0.1316872,0.843082,2.715048,19.50686,-41.15873,1001.471
1.942830086,-0.6798965,-0.4114438,-1.056182,-0.4866604,0.1282247,0.8421527,2.715048,19.50686,-41.15873,1001.471
1.945327282,-0.8038207,-0.4114438,-0.7501808,-0.4828187,0.1316478,0.837827,2.715048,19.50686,-41.15873,1001.471
1.947824001,-0.5559723,-0.3518845,-0.9337814,-0.483686,0.1252664,0.8340518,2.715048,19.50686,-41.15873,1001.471
1.950321197,-0.1222377,-0.05408797,-0.9949816,-0.4881195,0.127055,0.8297426,2.715048,19.50686,-41.15873,1001.471
1.952818394,-0.308124,-0.3518845,-1.117382,-0.487148,0.1276129,0.8335594,2.715048,19.50686,-41.15873,1001.471
1.955315590,-0.4940102,-0.3518845,-1.117382,-0.493419,0.1237035,0.8417113,2.715048,19.50686,-41.15873,1001.471
1.957813263,-0.5559723,-0.2327659,-1.056182,-0.4959262,0.1269772,0.836435,2.715048,19.50686,-41.15873,1001.471
1.960310459,-0.4940102,-0.4114438,-1.117382,-0.4914958,0.1251434,0.8374009,2.715048,19.50686,-41.15873,1001.471
1.962807655,-0.3700861,-0.1732066,-0.9337814,-0.4880981,0.1261424,0.8340481,2.715048,19.50686,-41.15873,1001.471
1.965304375,-0.2461619,-0.2327659,-0.9949816,-0.4803636,0.1312859,0.8430825,2.715048,19.50686,-41.15873,1001.471
1.967801571,-0.1222377,-0.1732066,-1.056182,-0.4857263,0.130685,0.8430899,2.715048,19.50686,-41.15873,1001.471
1.970299244,-0.06027564,0.1245899,-0.9949816,-0.4870777,0.1237434,0.8345423,2.715048,19.50686,-41.15873,1001.471
1.972796440,0.1256106,0.005471334,-0.811381,-0.48671,0.1305609,0.8354488,2.715048,19.50686,-41.15873,1001.471
1.975293636,0.4354211,-0.1732066,-0.811381,-0.4896011,0.1286147,0.8397633,2.715048,19.50686,-41.15873,1001.469
1.977790833,0.2495348,0.06503063,-0.9337814,-0.4871638,0.129217,0.8445343,2.715048,19.50686,-41.15873,1001.469
1.980287552,-0.06027564,0.2437085,-0.9337814,-0.4905274,0.1256562,0.8378744,2.715048,19.50686,-41.15873,1001.469
1.982784748,-0.308124,0.3032678,-0.811381,-0.4904489,0.1212949,0.8383831,2.715048,19.50686,-41.15873,1001.469
1.985282421,0.06364854,-0.05408797,-0.6889806,-0.4894867,0.1217175,0.8321699,2.715048,19.50686,-41.15873,1001.469
1.987779617,0.4354211,-0.05408797,-0.6277804,-0.4929917,0.1264969,0.8321378,2.360476,18.77694,-40.31597,1001.469
1.990276814,0.4354211,0.005471334,-0.50538,-0.4920124,0.1265566,0.8350028,2.360476,18.77694,-40.31597,1001.469
1.992774010,0.4354211,0.1245899,-0.4441798,-0.4930536,0.1304888,0.8402296,2.360476,18.77694,-40.31597,1001.469
1.995271683,-0.06027564,0.005471334,-0.50538,-0.4954408,0.1275568,0.8426403,2.360476,18.77694,-40.31597,1001.469
1.997767925,-0.1222377,0.1245899,-0.50538,-0.4934482,0.1251143,0.8383576,2.360476,18.77694,-40.31597,1001.469
2.000265598,0.1875727,0.2437085,-0.4441798,-0.4925003,0.1265525,0.8354808,2.360476,18.77694,-40.31597,1001.469
2.002762794,0.2495348,0.06503063,-0.50538,-0.4871965,0.1305762,0.8373596,2.360476,18.77694,-40.31597,1001.469
2.005259991,0.3114969,0.06503063,-0.2605792,-0.4911576,0.1339795,0.844025,2.360476,18.77694,-40.31597,1001.469
2.007757187,0.00168645,0.3032678,-0.199379,-0.4939316,0.1251747,0.8436117,2.360476,18.77694,-40.31597,1001.469
2.010254860,0.1256106,0.2437085,-0.3217794,-0.4948989,0.1240671,0.8350222,2.360476,18.77694,-40.31597,1001.469
2.012752056,0.4354211,0.1245899,-0.2605792,-0.4939674,0.1264888,0.8330938,2.360476,18.77694,-40.31597,1001.469
2.015248775,0.7452316,0.005471334,-0.199379,-0.4881409,0.1291895,0.8440573,2.360476,18.77694,-40.31597,1001.467
2.017745972,0.5593452,0.1841492,-0.2605792,-0.4873097,0.1374928,0.846386,2.360476,18.77694,-40.31597,1001.467
2.020243168,0.1256106,0.2437085,-0.50538,-0.4901476,0.1320399,0.8426052,2.360476,18.77694,-40.31597,1001.467
2.022740841,-0.1222377,0.3628271,-0.3829796,-0.4885486,0.1242358,0.8374056,2.360476,18.77694,-40.31597,1001.467
2.025238037,-0.1222377,0.2437085,-0.199379,-0.4934201,0.1230764,0.8312071,2.360476,18.77694,-40.31597,1001.467
2.027736664,0.1875727,0.005471334,-0.2605792,-0.4872653,0.1338573,0.8287383,2.360476,18.77694,-40.31597,1001.467
2.030231953,0.2495348,0.06503063,-0.2605792,-0.4843296,0.1340041,0.8349451,2.360476,18.77694,-40.31597,1001.467
2.032729149,0.2495348,0.1245899,-0.199379,-0.4906303,0.1314991,0.8392658,2.360476,18.77694,-40.31597,1001.467
2.035226345,0.06364854,0.06503063,-0.1381788,-0.492663,0.1358054,0.8378032,2.360476,18.77694,-40.31597,1001.467
2.037724018,-0.1841998,0.1245899,-0.199379,-0.4940725,0.1322995,0.8320971,2.708889,19.88424,-40.71869,1001.467
2.040221214,-0.2461619,0.06503063,-0.07697859,-0.4885978,0.1265786,0.8311793,2.708889,19.88424,-40.71869,1001.467
2.042718411,-0.1841998,0.005471334,-0.199379,-0.4905766,0.1279989,0.8316481,2.708889,19.88424,-40.71869,1001.467
2.045215607,-0.06027564,0.1245899,-0.2605792,-0.4896421,0.1304657,0.8330628,2.708889,19.88424,-40.71869,1001.467
2.047712326,0.1875727,0.1245899,-0.3217794,-0.4945873,0.1337384,0.8316094,2.708889,19.88424,-40.71869,1001.467
2.050209522,0.1875727,-0.2923252,-0.199379,-0.4940785,0.1328234,0.8349593,2.708889,19.88424,-40.71869,1001.467
2.052707195,-0.1222377,-0.1732066,-0.199379,-0.489625,0.1301028,0.842141,2.708889,19.88424,-40.71869,1001.467
2.055204391,-0.1841998,0.005471334,-0.3829796,-0.4880636,0.124809,0.8431332,2.708889,19.88424,-40.71869,1001.467
2.057701588,-0.2461619,-0.05408797,-0.3829796,-0.4865905,0.1243487,0.842658,2.708889,19.88424,-40.71869,1001.461
2.060198784,-0.1222377,0.06503063,-0.2605792,-0.4846464,0.1248696,0.8421755,2.708889,19.88424,-40.71869,1001.461
2.062696457,0.06364854,0.1841492,-0.07697859,-0.4915907,0.1311023,0.8473894,2.708889,19.88424,-40.71869,1001.461
2.065194130,0.1256106,0.2437085,-0.1381788,-0.4891093,0.1286768,0.8435839,2.708889,19.88424,-40.71869,1001.461
2.067690372,0.1256106,0.1245899,-0.1381788,-0.4885716,0.1257368,0.8407386,2.708889,19.88424,-40.71869,1001.461
2.070187569,0.373459,0.06503063,-0.07697859,-0.491567,0.129,0.8354628,2.708889,19.88424,-40.71869,1001.461
2.072684765,0.00168645,0.3032678,-0.07697859,-0.4930932,0.1323591,0.834962,2.708889,19.88424,-40.71869,1001.461
2.075182438,-0.1222377,0.3032678,-0.2605792,-0.4920489,0.128472,0.8330785,2.708889,19.88424,-40.71869,1001.461
2.077679634,0.1875727,0.2437085,-0.2605792,-0.4848042,0.1329715,0.8311315,2.708889,19.88424,-40.71869,1001.461
2.080176353,0.06364854,0.1841492,0.04542181,-0.4872339,0.1324787,0.83448,2.708889,19.88424,-40.71869,1001.461
2.082673550,0.1256106,-0.05408797,0.106622,-0.4892974,0.1387843,0.8373023,2.708889,19.88424,-40.71869,1001.461
2.085170746,0.1256106,0.1245899,-0.01577839,-0.4912063,0.1363286,0.8382763,2.708889,19.88424,-40.71869,1001.461
2.087667942,0.06364854,0.3032678,-0.1381788,-0.4906608,0.1328905,0.8344792,2.721535,19.14647,-40.70584,1001.461
2.090165615,-0.06027564,0.1841492,-0.199379,-0.4896289,0.1300448,0.8378425,2.721535,19.14647,-40.70584,1001.461
2.092662811,-0.2461619,0.3032678,-0.1381788,-0.4920084,0.1266146,0.8393014,2.721535,19.14647,-40.70584,1001.461
2.095160007,-0.308124,0.2437085,-0.1381788,-0.4905987,0.1295128,0.8359362,2.721535,19.14647,-40.70584,1001.461
2.097656727,-0.4320482,0.1245899,-0.1381788,-0.492999,0.1270016,0.8335672,2.721535,19.14647,-40.70584,1001.464
2.100153923,-0.1841998,-0.05408797,-0.199379,-0.4910665,0.1285768,0.8392869,2.721535,19.14647,-40.70584,1001.464
2.102656841,-0.06027564,0.2437085,-0.07697859,-0.4931126,0.1339117,0.8421159,2.721535,19.14647,-40.70584,1001.464
2.105148792,-0.1222377,0.2437085,-0.07697859,-0.4916249,0.131828,0.829233,2.721535,19.14647,-40.70584,1001.464
2.107645988,-0.06027564,0.005471334,0.04542181,-0.4921564,0.1348582,0.838765,2.721535,19.14647,-40.70584,1001.464
2.110143185,-0.1841998,0.005471334,-0.199379,-0.4906156,0.1304898,0.8364069,2.721535,19.14647,-40.70584,1001.464
2.112640381,-0.1222377,0.2437085,-0.07697859,-0.4910732,0.1284801,0.8321226,2.721535,19.14647,-40.70584,1001.464
2.115138054,-0.1222377,0.005471334,-0.07697859,-0.4891398,0.1300682,0.8387973,2.721535,19.14647,-40.70584,1001.464
2.117634773,-0.1222377,-0.05408797,-0.01577839,-0.484325,0.1334608,0.83065,2.721535,19.14647,-40.70584,1001.464
2.120131969,-0.2461619,0.2437085,-0.01577839,-0.4891582,0.1304118,0.8282863,2.721535,19.14647,-40.70584,1001.464
2.122629166,-0.1841998,0.1841492,-0.01577839,-0.4881901,0.1315323,0.837831,2.721535,19.14647,-40.70584,1001.464
2.125126362,-0.3700861,0.1245899,-0.1381788,-0.4911133,0.1315659,0.8449975,2.721535,19.14647,-40.70584,1001.464
2.127624035,-0.308124,-0.05408797,-0.07697859,-0.493085,0.1318674,0.8344879,2.721535,19.14647,-40.70584,1001.464
2.130120277,-0.4320482,0.1841492,0.04542181,-0.4905562,0.1270734,0.8349983,2.721535,19.14647,-40.70584,1001.464
2.132617950,-0.3700861,0.005471334,-0.01577839,-0.4906677,0.1334016,0.8363861,2.721535,19.14647,-40.70584,1001.464
2.135115147,-0.3700861,-0.2327659,-0.1381788,-0.4857755,0.1330278,0.8368636,2.721535,19.14647,-40.70584,1001.464
2.137612343,-0.2461619,0.005471334,-0.2605792,-0.4887604,0.1364456,0.8430506,2.347688,19.50743,-40.7115,1001.465
2.140109539,-0.2461619,0.005471334,-0.3217794,-0.4891106,0.1286575,0.842151,2.347688,19.50743,-40.7115,1001.465
2.142607212,-0.4320482,0.1245899,-0.3217794,-0.486617,0.1257982,0.84217,2.347688,19.50743,-40.7115,1001.465
2.145104408,-0.308124,-0.1732066,-0.199379,-0.485749,0.1315783,0.8373516,2.347688,19.50743,-40.7115,1001.465
2.147601128,-0.308124,0.005471334,-0.199379,-0.4896303,0.1300255,0.8364096,2.347688,19.50743,-40.7115,1001.465
2.150098324,-0.308124,0.005471334,-0.199379,-0.4886593,0.1305769,0.8397487,2.347688,19.50743,-40.7115,1001.465
2.152595520,-0.2461619,-0.05408797,-0.2605792,-0.4882152,0.133001,0.8387759,2.347688,19.50743,-40.7115,1001.465
2.155092716,-0.1222377,0.005471334,-0.1381788,-0.4857138,0.1296436,0.8378431,2.347688,19.50743,-40.7115,1001.465
2.157590389,-0.3700861,-0.05408797,-0.199379,-0.4911395,0.1324076,0.8354383,2.347688,19.50743,-40.7115,1001.465
2.160087585,-0.3700861,-0.2327659,-0.2605792,-0.4906213,0.130406,0.8301979,2.347688,19.50743,-40.7115,1001.465
2.162584782,-0.4320482,-0.2327659,-0.199379,-0.487714,0.1319765,0.8340062,2.347688,19.50743,-40.7115,1001.465
2.165081501,-0.5559723,0.005471334,-0.2605792,-0.4853279,0.1355034,0.8397117,2.347688,19.50743,-40.7115,1001.465
2.167578697,-0.6798965,0.005471334,-0.4441798,-0.4896225,0.1295273,0.8354579,2.347688,19.50743,-40.7115,1001.465
2.170076370,-0.6179345,0.06503063,-0.3217794,-0.4842876,0.1315583,0.8335296,2.347688,19.50743,-40.7115,1001.465
2.172573566,-0.308124,0.06503063,-0.3829796,-0.4823591,0.1330755,0.8349506,2.347688,19.50743,-40.7115,1001.465
2.175070762,-0.1841998,0.2437085,-0.2605792,-0.4827726,0.12926,0.8407101,2.347688,19.50743,-40.7115,1001.465
2.177567959,-0.06027564,0.4819458,-0.3217794,-0.4906581,0.1329292,0.8373449,2.347688,19.50743,-40.7115,1001.463
2.180064678,-0.308124,0.4819458,-0.3829796,-0.4949935,0.1294182,0.8359395,2.347688,19.50743,-40.7115,1001.463
2.182561874,-0.4320482,0.541505,-0.4441798,-0.4876167,0.126664,0.8359548,2.347688,19.50743,-40.7115,1001.463
2.185059547,0.3114969,0.4223864,-0.50538,-0.4861727,0.1276146,0.8321258,2.347688,19.50743,-40.7115,1001.463
2.187556743,0.8071936,0.6010644,-0.2605792,-0.4843773,0.1369803,0.8397006,1.992809,18.76173,-40.69789,1001.463
2.190056801,0.373459,0.3032678,-0.2605792,-0.4932863,0.1436176,0.8420468,1.992809,18.76173,-40.69789,1001.463
2.192551136,-0.4940102,0.3628271,-0.4441798,-0.4916619,0.1349589,0.8454512,1.992809,18.76173,-40.69789,1001.463
2.195048809,-1.051669,0.3032678,-0.4441798,-0.4894874,0.1223188,0.8407636,1.992809,18.76173,-40.69789,1001.463
2.197545051,-0.8657828,0.3032678,-0.3829796,-0.4889897,0.1212427,0.832173,1.992809,18.76173,-40.69789,1001.463
2.200042724,-0.2461619,0.1245899,-0.3217794,-0.4919625,0.1236126,0.8326355,1.992809,18.76173,-40.69789,1001.463
2.202539921,0.1256106,0.2437085,-0.3829796,-0.4895366,0.1246615,0.8345372,1.992809,18.76173,-40.69789,1001.463
2.205037117,0.1256106,0.1841492,-0.3829796,-0.4931371,0.1347792,0.8344671,1.992809,18.76173,-40.69789,1001.463
2.207534313,0.00168645,0.2437085,-0.2605792,-0.4852253,0.1302682,0.8473916,1.992809,18.76173,-40.69789,1001.463
2.210031986,-0.3700861,0.3032678,-0.4441798,-0.4916684,0.1354764,0.8478359,1.992809,18.76173,-40.69789,1001.463
2.212528705,-0.4940102,0.3628271,-0.2605792,-0.4906272,0.1315442,0.842609,1.992809,18.76173,-40.69789,1001.463
2.215025902,-0.4940102,0.3628271,-0.2605792,-0.4900001,0.1231757,0.8331151,1.992809,18.76173,-40.69789,1001.463
2.217523098,-0.308124,0.4819458,-0.1381788,-0.4890413,0.1241609,0.8326299,1.992809,18.76173,-40.69789,1001.465
2.220020294,0.00168645,0.6010644,-0.1381788,-0.4875842,0.1246906,0.8335805,1.992809,18.76173,-40.69789,1001.465
2.222517967,0.1256106,0.4223864,-0.07697859,-0.4905241,0.1250935,0.8321464,1.992809,18.76173,-40.69789,1001.465
2.225015163,0.1875727,0.3628271,0.04542181,-0.4929725,0.1255521,0.8340552,1.992809,18.76173,-40.69789,1001.465
2.227512359,0.1875727,0.3032678,-0.01577839,-0.4895987,0.1280392,0.8330802,1.992809,18.76173,-40.69789,1001.465
2.230009079,0.1875727,0.2437085,0.1678222,-0.4876576,0.128515,0.8292543,1.992809,18.76173,-40.69789,1001.465
2.232506275,0.4354211,0.1841492,0.1678222,-0.4901046,0.129607,0.8421449,1.992809,18.76173,-40.69789,1001.465
2.235003471,0.4354211,0.4223864,0.106622,-0.4896336,0.1305881,0.8421376,1.992809,18.76173,-40.69789,1001.465
2.237501144,0.2495348,0.6606237,-0.01577839,-0.4916096,0.1314394,0.8364007,2.709031,19.89152,-40.336,1001.465
2.239998340,0.5593452,0.4223864,0.04542181,-0.4916552,0.1338337,0.8339953,2.709031,19.89152,-40.336,1001.465
2.242495537,0.2495348,0.4223864,0.04542181,-0.4926587,0.1352557,0.8330305,2.709031,19.89152,-40.336,1001.465
2.244992256,0.3114969,0.3032678,-0.01577839,-0.4916218,0.1318731,0.8325763,2.709031,19.89152,-40.336,1001.465
2.247489452,0.2495348,0.2437085,-0.01577839,-0.4950191,0.1308806,0.8364066,2.709031,19.89152,-40.336,1001.465
2.249986648,0.2495348,0.3032678,-0.07697859,-0.4920952,0.1314676,0.8392668,2.709031,19.89152,-40.336,1001.465
2.252484321,0.3114969,0.3032678,0.106622,-0.4906837,0.1343915,0.8378121,2.709031,19.89152,-40.336,1001.465
2.254981518,0.06364854,0.1245899,0.04542181,-0.4921865,0.1362561,0.834456,2.709031,19.89152,-40.336,1001.465
2.257478714,0.1256106,0.1245899,0.04542181,-0.4906594,0.1329098,0.835912,2.709031,19.89152,-40.336,1001.463
2.259975910,0.06364854,0.1841492,-0.01577839,-0.4969331,0.1289618,0.8411982,2.709031,19.89152,-40.336,1001.463
2.262472629,-0.06027564,0.1245899,-0.07697859,-0.4949743,0.1284734,0.8378568,2.709031,19.89152,-40.336,1001.463
2.264969826,0.1256106,0.1841492,-0.1381788,-0.492979,0.1260696,0.8364398,2.709031,19.89152,-40.336,1001.463
2.267467499,0.00168645,0.06503063,-0.01577839,-0.4872251,0.1326076,0.8440324,2.709031,19.89152,-40.336,1001.463
2.269964695,0.1256106,0.005471334,0.04542181,-0.4916374,0.1328695,0.8344799,2.709031,19.89152,-40.336,1001.463
2.272461891,0.06364854,-0.1136473,-0.1381788,-0.4926153,0.1328292,0.8330477,2.709031,19.89152,-40.336,1001.463
2.274959087,-0.1841998,-0.05408797,-0.07697859,-0.4926109,0.1328936,0.8378239,2.709031,19.89152,-40.336,1001.463
2.277455807,-0.1841998,-0.05408797,-0.1381788,-0.488641,0.1296192,0.8407109,2.709031,19.89152,-40.336,1001.463
2.279953480,-0.06027564,-0.1136473,-0.199379,-0.4905826,0.1285228,0.8345103,2.709031,19.89152,-40.336,1001.463
2.282450676,-0.1841998,-0.2923252,-0.01577839,-0.4911357,0.1318514,0.8301879,2.709031,19.89152,-40.336,1001.463
2.284947872,-0.06027564,-0.2327659,-0.199379,-0.4881545,0.129604,0.8388001,2.709031,19.89152,-40.336,1001.463
2.287445068,0.06364854,-0.1732066,-0.199379,-0.4886844,0.1320457,0.8406937,2.353988,19.13733,-40.76886,1001.463
2.289947033,-0.1222377,-0.1732066,-0.2605792,-0.4935588,0.1314554,0.8407007,2.353988,19.13733,-40.76886,1001.463
2.292439937,-0.2461619,-0.1732066,-0.1381788,-0.4876623,0.1290583,0.8335494,2.353988,19.13733,-40.76886,1001.463
2.294936657,-0.2461619,-0.2327659,-0.2605792,-0.4900444,0.1255894,0.8321426,2.353988,19.13733,-40.76886,1001.463
2.297433853,-0.2461619,-0.2327659,-0.1381788,-0.4915466,0.1280745,0.838813,2.353988,19.13733,-40.76886,1001.466
2.299931049,-0.1222377,-0.3518845,-0.1381788,-0.4940306,0.1304614,0.8397527,2.353988,19.13733,-40.76886,1001.466
2.302428245,-0.06027564,-0.2327659,-0.1381788,-0.4895682,0.1266478,0.8378667,2.353988,19.13733,-40.76886,1001.466
2.304925918,-0.06027564,-0.1732066,-0.199379,-0.4891762,0.1319836,0.836873,2.353988,19.13733,-40.76886,1001.466
2.307423115,-0.06027564,-0.05408797,-0.07697859,-0.4895615,0.1267444,0.845031,2.353988,19.13733,-40.76886,1001.466
2.309920311,0.1875727,0.1245899,0.04542181,-0.4900812,0.1281125,0.8392896,2.353988,19.13733,-40.76886,1001.466
2.312417030,0.1875727,0.1841492,0.04542181,-0.4910861,0.1295151,0.8368918,2.353988,19.13733,-40.76886,1001.466
2.314914226,0.06364854,0.1841492,-0.01577839,-0.4930485,0.129952,0.8364121,2.353988,19.13733,-40.76886,1001.466
2.317411423,-0.06027564,0.1841492,-0.01577839,-0.4925232,0.1280535,0.8388137,2.353988,19.13733,-40.76886,1001.466
2.319909096,0.1875727,0.1841492,0.106622,-0.4886239,0.1280345,0.8311689,2.353988,19.13733,-40.76886,1001.466
2.322406292,0.3114969,0.1841492,0.04542181,-0.4896712,0.1318765,0.8297091,2.353988,19.13733,-40.76886,1001.466
2.324903488,0.00168645,0.1245899,-0.199379,-0.4906338,0.1314475,0.8354448,2.353988,19.13733,-40.76886,1001.466
2.327400684,0.1875727,-0.05408797,0.2290224,-0.4896815,0.1329502,0.8373441,2.353988,19.13733,-40.76886,1001.466
2.329897404,0.2495348,0.005471334,0.2290224,-0.4887145,0.1334436,0.8363847,2.353988,19.13733,-40.76886,1001.466
2.332395077,0.1256106,0.2437085,-0.07697859,-0.4897369,0.1364246,0.8430513,2.353988,19.13733,-40.76886,1001.466
2.334892273,0.1875727,0.1245899,-0.01577839,-0.4891845,0.1324754,0.8373472,2.353988,19.13733,-40.76886,1001.466
2.337389469,0.06364854,0.1841492,0.04542181,-0.4856644,0.1266931,0.8349981,1.986322,19.12212,-41.15078,1001.462
2.339886665,0.1875727,0.3032678,-0.3217794,-0.4871974,0.1305633,0.8364043,1.986322,19.12212,-41.15078,1001.462
2.342384338,0.00168645,0.3628271,0.04542181,-0.491125,0.132006,0.8416507,1.986322,19.12212,-41.15078,1001.462
2.344880581,0.00168645,0.3032678,0.1678222,-0.4906216,0.1310138,0.8392692,1.986322,19.12212,-41.15078,1001.462
2.347378254,0.06364854,0.2437085,0.04542181,-0.4907089,0.1358603,0.8387569,1.986322,19.12212,-41.15078,1001.462
2.349875450,0.00168645,0.3032678,0.04542181,-0.4917037,0.136797,0.8377956,1.986322,19.12212,-41.15078,1001.462
2.352372646,0.06364854,0.1245899,-0.07697859,-0.4907089,0.1358603,0.8387569,1.986322,19.12212,-41.15078,1001.462
2.354869842,-0.06027564,0.1245899,-0.07697859,-0.4905895,0.1290339,0.8364173,1.986322,19.12212,-41.15078,1001.462
2.357367515,0.06364854,0.06503063,-0.199379,-0.4921005,0.1313902,0.8335354,1.986322,19.12212,-41.15078,1001.462
2.359864712,0.00168645,0.005471334,-0.1381788,-0.491192,0.1353129,0.8349398,1.986322,19.12212,-41.15078,1001.462
2.362361431,-0.1841998,0.1245899,-0.07697859,-0.492127,0.1328397,0.8330474,1.986322,19.12212,-41.15078,1001.462
2.364858627,-0.2461619,-0.05408797,-0.199379,-0.4960213,0.1323219,0.8368746,1.986322,19.12212,-41.15078,1001.462
2.367355823,0.00168645,0.005471334,-0.3217794,-0.4921066,0.1319142,0.8363976,1.986322,19.12212,-41.15078,1001.462
2.369853020,-0.1222377,0.005471334,-0.199379,-0.4911985,0.1358305,0.8373245,1.986322,19.12212,-41.15078,1001.462
2.372350693,-0.1222377,-0.05408797,-0.07697859,-0.4916,0.130967,0.8373594,1.986322,19.12212,-41.15078,1001.462
2.374847889,-0.1841998,0.1841492,-0.01577839,-0.4935679,0.1319342,0.8402196,1.986322,19.12212,-41.15078,1001.462
2.377345085,-0.06027564,0.1245899,-0.2605792,-0.4925697,0.1304349,0.8354532,1.986322,19.12212,-41.15078,1001.462
2.379841804,-0.06027564,0.005471334,-0.07697859,-0.4916222,0.1318667,0.8320987,1.986322,19.12212,-41.15078,1001.465
2.382339001,0.00168645,-0.05408797,0.106622,-0.4911021,0.1305051,0.8383178,1.986322,19.12212,-41.15078,1001.465
2.384836674,-0.06027564,-0.05408797,-0.07697859,-0.4896871,0.1334806,0.840684,1.986322,19.12212,-41.15078,1001.465
2.387333870,-0.1841998,-0.05408797,-0.199379,-0.4867416,0.1325472,0.8387783,2.728,18.78486,-40.31673,1001.465
2.389831066,-0.06027564,0.005471334,-0.2605792,-0.4920836,0.1304132,0.8330647,2.728,18.78486,-40.31673,1001.465
2.392328262,0.1256106,0.005471334,-0.2605792,-0.4911161,0.130913,0.8325829,2.728,18.78486,-40.31673,1001.465
2.394824982,0.1256106,0.1245899,-0.01577839,-0.4896637,0.131986,0.8378286,2.728,18.78486,-40.31673,1001.465
2.397322178,-0.06027564,0.005471334,-0.1381788,-0.4915826,0.1299964,0.8373663,2.728,18.78486,-40.31673,1001.465
2.399819851,-0.1222377,0.1245899,-0.2605792,-0.4925076,0.1270572,0.8369101,2.728,18.78486,-40.31673,1001.465
2.402317047,-0.2461619,-0.05408797,-0.1381788,-0.4877291,0.1329793,0.8363874,2.728,18.78486,-40.31673,1001.465
2.404814243,-0.1841998,-0.1732066,-0.2605792,-0.4877017,0.1315428,0.8378307,2.728,18.78486,-40.31673,1001.465
2.407311439,-0.2461619,0.1245899,-0.199379,-0.489619,0.1295789,0.8392788,2.728,18.78486,-40.31673,1001.465
2.409809112,-0.308124,0.005471334,-0.1381788,-0.4886236,0.1286486,0.8407179,2.728,18.78486,-40.31673,1001.465
2.412305355,0.00168645,-0.1136473,-0.1381788,-0.48959,0.1275539,0.8330836,2.728,18.78486,-40.31673,1001.465
2.414803028,0.3114969,0.005471334,-0.2605792,-0.4906868,0.1343464,0.8344687,2.728,18.78486,-40.31673,1001.465
2.417300224,0.1875727,0.005471334,-0.199379,-0.4941435,0.1367702,0.8397078,2.728,18.78486,-40.31673,1001.465
2.419797420,-0.308124,-0.05408797,-0.199379,-0.496046,0.1337971,0.8382971,2.728,18.78486,-40.31673,1001.463
2.422294617,-0.4320482,-0.1136473,-0.199379,-0.4920144,0.1271385,0.8421636,2.728,18.78486,-40.31673,1001.463
2.499708176,0.00168645,0.06503063,-0.1381788,-0.4901173,0.1300343,0.8378429,2.354153,19.14583,-40.32239,1001.46
2.502206325,-0.1841998,0.06503063,-0.199379,-0.4901104,0.1295233,0.8359359,2.354153,19.14583,-40.32239,1001.46
2.504703045,-0.2461619,0.1841492,-0.1381788,-0.4877955,0.1369068,0.8397031,2.354153,19.14583,-40.32239,1001.46
2.507200241,-0.1222377,0.1841492,-0.2605792,-0.4902851,0.1398241,0.8439827,2.354153,19.14583,-40.32239,1001.46
2.509697437,-0.3700861,0.2437085,-0.2605792,-0.4906819,0.1344173,0.8397225,2.354153,19.14583,-40.32239,1001.46
2.512194157,-0.6179345,0.2437085,-0.1381788,-0.4901137,0.1300859,0.8416638,2.354153,19.14583,-40.32239,1001.46
2.514691353,-0.5559723,0.06503063,-0.2605792,-0.4876374,0.1281972,0.8416758,2.354153,19.14583,-40.32239,1001.46
2.517188549,-0.6179345,0.005471334,-0.3217794,-0.4895357,0.1246744,0.8354925,2.354153,19.14583,-40.32239,1001.46
2.519686222,-0.5559723,0.3032678,-0.3217794,-0.4885582,0.1247083,0.8364469,2.354153,19.14583,-40.32239,1001.46
2.522183418,-0.3700861,0.2437085,-0.2605792,-0.4842346,0.1286594,0.8345056,2.354153,19.14583,-40.32239,1001.46
2.524680614,-0.1841998,0.3032678,-0.2605792,-0.4878485,0.1398057,0.8387271,2.354153,19.14583,-40.32239,1001.46
2.527177334,-0.3700861,0.2437085,-0.07697859,-0.4853813,0.1383959,0.8382581,2.354153,19.14583,-40.32239,1001.46
2.529674530,-0.7418586,0.3628271,-0.01577839,-0.4906506,0.1330387,0.8454643,2.354153,19.14583,-40.32239,1001.46
2.532172203,-0.9277449,0.1245899,-0.2605792,-0.4930102,0.1280624,0.8402469,2.354153,19.14583,-40.32239,1001.46
2.534669399,-0.6179345,0.1245899,-0.3217794,-0.4914212,0.1207242,0.8336111,2.354153,19.14583,-40.32239,1001.46
2.537166595,-0.1222377,0.2437085,-0.2605792,-0.4871558,0.1281111,0.8345112,1.618962,19.12269,-40.70355,1001.46
2.539663792,-0.1222377,0.1841492,-0.199379,-0.4876779,0.1300546,0.835453,1.618962,19.12269,-40.70355,1001.458
2.542160988,-0.06027564,0.2437085,-0.1381788,-0.4935154,0.1290289,0.840718,1.618962,19.12269,-40.70355,1001.458
2.544657707,-0.5559723,0.4223864,-0.1381788,-0.4900638,0.1271419,0.8392965,1.618962,19.12269,-40.70355,1001.458
2.547155380,-0.8038207,0.2437085,-0.199379,-0.4880569,0.1236837,0.8316773,1.618962,19.12269,-40.70355,1001.458
2.549652576,-0.5559723,0.06503063,-0.3217794,-0.4896199,0.129566,0.8383235,1.618962,19.12269,-40.70355,1001.458
2.552151680,-0.1222377,0.3032678,-0.3829796,-0.4861422,0.1262231,0.8369123,1.618962,19.12269,-40.70355,1001.458
2.554646969,-0.2461619,0.1841492,-0.2605792,-0.4862972,0.1349778,0.838283,1.618962,19.12269,-40.70355,1001.458
2.557144642,-0.4320482,0.3032678,-0.1381788,-0.4915987,0.1309863,0.8387923,1.618962,19.12269,-40.70355,1001.458
2.559641838,-0.4940102,0.3628271,-0.1381788,-0.4910162,0.1256392,0.8373971,1.618962,19.12269,-40.70355,1001.458
2.562138557,-0.4940102,0.1841492,-0.199379,-0.4880794,0.1251912,0.8354879,1.618962,19.12269,-40.70355,1001.458
2.564635754,-0.308124,0.1841492,-0.07697859,-0.4905232,0.1251064,0.8331016,1.618962,19.12269,-40.70355,1001.458
2.567132950,-0.1222377,0.3032678,-0.01577839,-0.4895651,0.1266929,0.8412101,1.618962,19.12269,-40.70355,1001.458
2.572127819,-0.1841998,0.4223864,0.04542181,-0.4945025,0.1294674,0.8388048,1.618962,19.12269,-40.70355,1001.458
2.572127819,-0.1841998,0.4223864,0.04542181,-0.4945025,0.1294674,0.8388048,1.618962,19.12269,-40.70355,1001.458
2.574625015,-0.06027564,0.1245899,-0.1381788,-0.4930463,0.1299842,0.8388003,1.618962,19.12269,-40.70355,1001.458
2.577122211,0.06364854,-0.05408797,0.04542181,-0.4882099,0.1330783,0.8445073,1.618962,19.12269,-40.70355,1001.458
2.582116127,0.06364854,0.1841492,0.04542181,-0.4880342,0.1227905,0.8374156,1.618962,19.12269,-40.70355,1001.454
2.582116127,0.06364854,0.1841492,0.04542181,-0.4880342,0.1227905,0.8374156,1.618962,19.12269,-40.70355,1001.454
2.587110996,0.1256106,0.1245899,0.04542181,-0.4846392,0.1237508,0.8311971,2.727858,18.77758,-40.69942,1001.454
2.587110996,0.1256106,0.1245899,0.04542181,-0.4846392,0.1237508,0.8311971,2.727858,18.77758,-40.69942,1001.454
2.589608192,0.1875727,0.1841492,0.106622,-0.4885972,0.1271992,0.8412058,2.727858,18.77758,-40.69942,1001.454
2.594602108,0.3114969,0.3628271,0.106622,-0.487635,0.1276217,0.8349926,2.727858,18.77758,-40.69942,1001.454
2.594602108,0.3114969,0.3628271,0.106622,-0.487635,0.1276217,0.8349926,2.727858,18.77758,-40.69942,1001.454
2.597099304,0.3114969,0.06503063,0.106622,-0.4920427,0.1285622,0.8397651,2.727858,18.77758,-40.69942,1001.454
2.602094173,0.1875727,0.1245899,0.04542181,-0.4924789,0.1256399,0.8397862,2.727858,18.77758,-40.69942,1001.454
2.602094173,0.1875727,0.1245899,0.04542181,-0.4924789,0.1256399,0.8397862,2.727858,18.77758,-40.69942,1001.454
2.604591370,0.1875727,0.1245899,0.04542181,-0.4905314,0.1255982,0.8335758,2.727858,18.77758,-40.69942,1001.454
2.607088566,0.6832694,0.2437085,0.2290224,-0.492989,0.1265356,0.8350035,2.727858,18.77758,-40.69942,1001.454
2.609586239,0.6832694,0.1245899,0.2290224,-0.4916452,0.1333677,0.8354317,2.727858,18.77758,-40.69942,1001.454
2.612082481,0.6213074,0.06503063,0.106622,-0.4941201,0.1352757,0.8368524,2.727858,18.77758,-40.69942,1001.454
2.617077351,0.4973832,0.1841492,0.1678222,-0.4852645,0.132145,0.8426016,2.727858,18.77758,-40.69942,1001.454
2.617077351,0.4973832,0.1841492,0.1678222,-0.4852645,0.132145,0.8426016,2.727858,18.77758,-40.69942,1001.454
2.622071743,0.4354211,0.1245899,0.04542181,-0.4887383,0.1349317,0.8387624,2.727858,18.77758,-40.69942,1001.457
2.622071743,0.4354211,0.1245899,0.04542181,-0.4887383,0.1349317,0.8387624,2.727858,18.77758,-40.69942,1001.457
2.627066612,0.4354211,0.1841492,0.2902226,-0.4920647,0.1300761,0.8440533,2.727858,18.77758,-40.69942,1001.457
2.629563332,0.4973832,0.2437085,0.2290224,-0.4935385,0.1299157,0.834502,2.727858,18.77758,-40.69942,1001.457
2.629563332,0.4973832,0.2437085,0.2290224,-0.4935385,0.1299157,0.834502,2.727858,18.77758,-40.69942,1001.457
2.632060528,0.4354211,0.1245899,0.106622,-0.4929721,0.1255585,0.8345328,2.727858,18.77758,-40.69942,1001.457
2.637054920,0.6832694,0.1245899,0.04542181,-0.4886715,0.1310107,0.8359244,2.727858,18.77758,-40.69942,1001.457
2.639552593,0.6832694,0.2437085,0.04542181,-0.4911651,0.1338699,0.8359055,2.727858,18.77758,-40.69942,1001.457
2.642049789,0.5593452,0.1841492,0.106622,-0.490264,0.1382973,0.8387393,2.727858,18.77758,-40.69942,1001.457
2.644546986,0.4973832,-0.05408797,0.1678222,-0.4887452,0.1354428,0.8406695,2.727858,18.77758,-40.69942,1001.457
2.647043705,0.373459,-0.05408797,0.106622,-0.4871471,0.1276258,0.8345146,2.727858,18.77758,-40.69942,1001.457
2.649540901,0.373459,0.3032678,0.04542181,-0.492042,0.1279609,0.8311715,2.727858,18.77758,-40.69942,1001.457
2.652038574,0.3114969,0.1841492,0.106622,-0.4925639,0.1305187,0.8416622,2.727858,18.77758,-40.69942,1001.457
2.654536247,0.3114969,-0.1136473,0.106622,-0.493024,0.1290845,0.844061,2.727858,18.77758,-40.69942,1001.457
2.657032967,0.373459,0.005471334,-0.01577839,-0.488205,0.1319273,0.8311409,2.727858,18.77758,-40.69942,1001.457
2.659530163,0.4354211,0.1841492,0.04542181,-0.4891907,0.1323852,0.8306605,2.727858,18.77758,-40.69942,1001.455
2.662026882,0.4973832,0.005471334,-0.07697859,-0.4891126,0.1280175,0.8306916,2.727858,18.77758,-40.69942,1001.455
2.662026882,0.4973832,0.005471334,-0.07697859,-0.4891126,0.1280175,0.8306916,2.727858,18.77758,-40.69942,1001.455
2.667024136,0.3114969,0.06503063,0.106622,-0.4891306,0.1295894,0.8392785,2.727858,18.77758,-40.69942,1001.455
2.669518948,0.2495348,0.1841492,0.04542181,-0.4915657,0.1290193,0.8368956,2.727858,18.77758,-40.69942,1001.455
2.672016144,0.2495348,0.1245899,-0.07697859,-0.4890543,0.1251959,0.8373991,2.727858,18.77758,-40.69942,1001.455
2.674513340,0.373459,0.06503063,0.04542181,-0.4901095,0.1295362,0.8368911,2.727858,18.77758,-40.69942,1001.455
2.677011013,0.3114969,0.005471334,0.04542181,-0.4910774,0.1290298,0.8368952,2.727858,18.77758,-40.69942,1001.455
2.679507255,0.373459,-0.05408797,-0.07697859,-0.4900122,0.1242237,0.8388396,2.727858,18.77758,-40.69942,1001.455
2.682004929,0.4973832,0.1245899,-0.01577839,-0.4895942,0.1281037,0.8378563,2.727858,18.77758,-40.69942,1001.455
2.684502125,0.4354211,0.3032678,-0.01577839,-0.4885778,0.1256466,0.8340519,2.727858,18.77758,-40.69942,1001.455
2.686999321,0.6213074,0.1841492,0.04542181,-0.4881146,0.1271259,0.8349964,2.360311,18.76844,-40.76244,1001.455
2.689496517,0.6213074,0.3628271,0.04542181,-0.4890954,0.1276547,0.8397698,2.360311,18.76844,-40.76244,1001.455
2.691994190,0.6213074,0.3628271,0.1678222,-0.4895951,0.1280908,0.8369011,2.360311,18.76844,-40.76244,1001.455
2.694491386,0.6213074,0.3032678,0.106622,-0.490541,0.1260706,0.8326171,2.360311,18.76844,-40.76244,1001.455
2.696988106,0.6832694,0.3032678,-0.01577839,-0.4924967,0.1266041,0.8393018,2.360311,18.76844,-40.76244,1001.455
2.699485302,0.9311178,0.4819458,0.106622,-0.4900796,0.1275241,0.8316512,2.360311,18.76844,-40.76244,1001.453
2.701982498,0.7452316,0.3032678,0.04542181,-0.4910645,0.1279948,0.832126,2.360311,18.76844,-40.76244,1001.453
2.704480171,0.8071936,0.1841492,0.106622,-0.4906074,0.1299981,0.8359328,2.360311,18.76844,-40.76244,1001.453
2.706977367,0.7452316,0.6010644,0.106622,-0.4931037,0.1328187,0.8330481,2.360311,18.76844,-40.76244,1001.453
2.709474564,0.7452316,0.541505,0.106622,-0.4861356,0.1263198,0.8440766,2.360311,18.76844,-40.76244,1001.453
2.711971283,0.8071936,0.541505,0.106622,-0.4890799,0.1266583,0.8378663,2.360311,18.76844,-40.76244,1001.453
2.714468479,0.9311178,0.4223864,0.106622,-0.4901273,0.1305003,0.8364065,2.360311,18.76844,-40.76244,1001.453
2.716965675,0.9930799,0.3628271,0.1678222,-0.49015,0.1313936,0.8306682,2.360311,18.76844,-40.76244,1001.453
2.719463348,1.178966,0.4223864,0.1678222,-0.4912203,0.1367366,0.8325414,2.360311,18.76844,-40.76244,1001.453
2.721960545,1.117004,0.6606237,0.106622,-0.4868805,0.140312,0.8387229,2.360311,18.76844,-40.76244,1001.453
2.724457741,0.7452316,0.720183,0.106622,-0.4911057,0.1304535,0.8344968,2.360311,18.76844,-40.76244,1001.453
2.726954937,0.6832694,0.4223864,0.2902226,-0.4888118,0.1387561,0.8344362,2.360311,18.76844,-40.76244,1001.453
2.729451656,0.8691557,0.541505,0.1678222,-0.4876819,0.1299966,0.8311543,2.360311,18.76844,-40.76244,1001.453
2.731948852,0.6213074,0.3628271,0.1678222,-0.4940233,0.1299568,0.8383234,2.360311,18.76844,-40.76244,1001.453
2.734446526,0.4973832,0.3032678,0.04542181,-0.4848157,0.1340258,0.8373336,2.360311,18.76844,-40.76244,1001.453
2.736943722,0.5593452,0.1841492,0.106622,-0.4901634,0.1324222,0.8349598,2.347665,19.50622,-40.77528,1001.453
2.739440918,0.5593452,0.1245899,0.1678222,-0.4921379,0.1332928,0.8306558,2.347665,19.50622,-40.77528,1001.453
2.741938114,0.5593452,0.1841492,0.106622,-0.4906586,0.1329227,0.8368672,2.347665,19.50622,-40.77528,1001.456
2.744435787,0.373459,0.06503063,-0.01577839,-0.49162,0.1318989,0.8344868,2.347665,19.50622,-40.77528,1001.456
2.746932507,0.373459,0.06503063,-0.199379,-0.485816,0.1348852,0.8306407,2.347665,19.50622,-40.77528,1001.456
