Time (s),Gyroscope X (deg/s),Gyroscope Y (deg/s),Gyroscope Z (deg/s),Accelerometer X (g),Accelerometer Y (g),Accelerometer Z (g),Magnetometer X (uT),Magnetometer Y (uT),Magnetometer Z (uT),Barometer (hPa)
0.000000000,-0.05593027,-0.1458422,0.2562249,-0.4971168,0.1391337,0.8396927,3.043126,21.65041,-45.28001,1001.503
0.002497196,-0.241799,-0.02667781,0.3785448,-0.4975748,0.1371176,0.8349307,3.043126,21.65041,-45.28001,1001.503
0.004994869,-0.3036851,0.09244917,0.1948252,-0.5009001,0.1316671,0.8321056,3.043126,21.65041,-45.28001,1001.503
0.007491112,-0.1177034,0.1519794,0.07236364,-0.5004734,0.1350618,0.8311257,3.043126,21.65041,-45.28001,1001.503
0.009988785,0.2541061,0.211491,0.1335411,-0.4970709,0.1361317,0.8330268,3.043126,21.65041,-45.28001,1001.503
0.012485981,0.4399125,0.03274664,0.3170998,-0.4967358,0.1449227,0.8363075,3.043126,21.65041,-45.28001,1001.503
0.014983177,0.3158502,-0.02682295,0.3170002,-0.4972393,0.145915,0.838689,3.043126,21.65041,-45.28001,1001.503
0.017480373,-0.05602161,-0.08637382,0.2557003,-0.4977393,0.1463447,0.8353426,3.043126,21.65041,-45.28001,1001.503
0.019978046,-0.1179661,0.03277192,0.1332196,-0.4952779,0.1448511,0.8286645,3.043126,21.65041,-45.28001,1001.503
0.022475243,0.06795722,0.09232092,0.1331778,-0.493267,0.1414509,0.825344,3.043126,21.65041,-45.28001,1001.503
0.024972439,0.4397084,0.1518512,0.07193572,-0.4946845,0.1390509,0.8296609,3.043126,21.65041,-45.28001,1001.503
0.027469635,0.6254566,0.2709221,0.1943135,-0.4976338,0.1405404,0.8368169,3.043126,21.65041,-45.28001,1001.503
0.029967308,0.5013359,0.3899556,0.2554527,-0.4990279,0.1366459,0.8382786,3.043126,21.65041,-45.28001,1001.503
0.032464504,0.5011784,0.2111552,0.132972,-0.4956698,0.1395152,0.8296582,3.043126,21.65041,-45.28001,1001.503
0.034961700,0.4390588,0.3302075,0.07173005,-0.4897169,0.1342708,0.8273037,2.688413,20.91321,-44.81993,1001.503
0.037458896,0.8106935,0.4492223,0.07170752,-0.4941337,0.1356901,0.8315952,2.688413,20.91321,-44.81993,1001.503
0.039956569,1.306136,0.3895219,0.1328852,-0.4991666,0.1438029,0.8291519,2.688413,20.91321,-44.81993,1001.505
0.042453766,1.367687,0.3893995,0.01044304,-0.4972555,0.1462907,0.830566,2.688413,20.91321,-44.81993,1001.505
0.044950962,0.8715609,0.2701586,0.07163996,-0.4973096,0.1497845,0.8377061,2.688413,20.91321,-44.81993,1001.505
0.047448158,0.189704,0.2105144,0.07161745,-0.4947269,0.1421044,0.8401477,2.688413,20.91321,-44.81993,1001.505
0.049945831,0.1896445,0.150889,0.07159495,-0.4912047,0.1357403,0.8306378,2.688413,20.91321,-44.81993,1001.505
0.052443027,0.5613574,-0.02783634,0.1327727,-0.4932165,0.1391275,0.8330032,2.688413,20.91321,-44.81993,1001.505
0.054940223,0.6231432,0.03173171,-0.05086966,-0.4941563,0.1365834,0.8258569,2.688413,20.91321,-44.81993,1001.505
0.057437420,0.5609853,0.09128104,-0.05085368,-0.4941711,0.1375927,0.8287157,2.688413,20.91321,-44.81993,1001.505
0.059934139,0.5608091,0.1508117,0.1327629,-0.4946581,0.1376015,0.8301489,2.688413,20.91321,-44.81993,1001.505
0.062431335,0.8704433,0.1507643,0.1939214,-0.499553,0.1379366,0.8268058,2.688413,20.91321,-44.81993,1001.505
0.064929485,1.118018,0.09115762,0.07146007,-0.4961976,0.1419892,0.8339398,2.688413,20.91321,-44.81993,1001.505
0.067426204,1.055705,0.1506883,0.07143763,-0.495241,0.1429421,0.8310664,2.688413,20.91321,-44.81993,1001.505
0.069923401,1.055373,-0.02803696,0.1326154,-0.4971878,0.1423826,0.8286833,2.688413,20.91321,-44.81993,1001.505
0.072420597,0.8691554,-0.02802815,0.07137352,-0.4967638,0.1457386,0.8248377,2.688413,20.91321,-44.81993,1001.505
0.074918270,0.8069203,-0.08757865,0.0713511,-0.4982134,0.1453185,0.8320066,2.688413,20.91321,-44.81993,1001.505
0.077415466,0.8066668,-0.02799183,0.1325289,-0.4946988,0.1400666,0.8329973,2.688413,20.91321,-44.81993,1001.505
0.079912662,0.558565,-0.2066609,0.1324873,-0.4985949,0.1395231,0.8349141,2.688413,20.91321,-44.81993,1001.507
0.082409858,0.6823137,-0.206596,0.01004522,-0.4966837,0.1420109,0.8363282,2.688413,20.91321,-44.81993,1001.507
0.084907532,0.434251,-0.02785321,-0.2959589,-0.4932808,0.1424731,0.829158,2.675602,21.64249,-45.27925,1001.507
0.087404728,0.3101904,-0.02784446,-0.1122654,-0.4966612,0.1405034,0.8325177,2.675602,21.64249,-45.27925,1001.507
0.089901924,0.4959792,-0.02783571,0.01017032,-0.4951894,0.1400239,0.8306096,2.675602,21.64249,-45.27925,1001.507
0.092399120,0.4958234,-0.02782696,0.01016712,-0.4947267,0.1414967,0.8310764,2.675602,21.64249,-45.27925,1001.507
0.094896793,0.4337055,-0.08737752,0.07136413,-0.4918767,0.1459017,0.8291327,2.675602,21.64249,-45.27925,1001.507
0.097393989,0.4335693,-0.2064687,-0.05105869,-0.4933234,0.1449124,0.830096,2.675602,21.64249,-45.27925,1001.507
0.099891186,0.4334331,-0.2064038,-0.05104265,-0.4947444,0.1424609,0.8305919,2.675602,21.64249,-45.27925,1001.507
0.102388382,0.3093727,-0.2658983,-0.05102661,-0.4927761,0.1415001,0.8282093,2.675602,21.64249,-45.27925,1001.507
0.104886055,0.1233892,-0.3849333,-0.05101058,-0.4933,0.1434179,0.8272406,2.675602,21.64249,-45.27925,1001.507
0.107383251,0.4331609,-0.0870159,-0.1121948,-0.4976278,0.1400165,0.8339547,2.675602,21.64249,-45.27925,1001.507
0.109879970,0.3710628,-0.02742926,-0.1121595,-0.4985715,0.1380285,0.8320588,2.675602,21.64249,-45.27925,1001.507
0.112377167,0.3709462,-0.08697994,-0.2345247,-0.4943055,0.1454218,0.8334365,2.675602,21.64249,-45.27925,1001.507
0.114874363,0.1849434,-0.2060712,-0.1120506,-0.4942036,0.1395661,0.8310899,2.675602,21.64249,-45.27925,1001.507
0.117371559,0.1229232,-0.4442437,-0.1732156,-0.4922546,0.1401578,0.8358613,2.675602,21.64249,-45.27925,1001.507
0.119869232,0.3087708,-0.3249855,0.01043943,-0.4932045,0.1380796,0.8272786,2.675602,21.64249,-45.27925,1001.51
0.122366428,0.2467117,-0.3844427,0.01043615,-0.4873855,0.1406708,0.8301228,2.675602,21.64249,-45.27925,1001.51
0.124863624,0.3705584,-0.5034406,-0.1731677,-0.4907077,0.1352655,0.8306409,2.675602,21.64249,-45.27925,1001.51
0.127360821,0.1845557,-0.3841638,-0.1119131,-0.4966131,0.1375337,0.8282399,2.675602,21.64249,-45.27925,1001.51
0.129858494,0.370384,-0.3244838,-0.111878,-0.4937092,0.1390526,0.8282273,2.675602,21.64249,-45.27925,1001.51
0.132355690,0.4322298,-0.4435004,0.132958,-0.5000691,0.1393562,0.8248852,2.675602,21.64249,-45.27925,1001.51
0.134852886,0.4320939,-0.3838018,0.07171601,-0.4952085,0.1409687,0.8286922,3.049614,21.29002,-44.82713,1001.51
0.137350082,0.4319582,-0.324122,0.2552941,-0.4941793,0.1380844,0.8291898,3.049614,21.29002,-44.82713,1001.51
0.139847755,0.4937846,-0.3835794,0.07161328,-0.4946788,0.1391347,0.83587,3.049614,21.29002,-44.82713,1001.51
0.142344951,0.3077432,-0.4430182,0.07159078,-0.4960967,0.1367282,0.8397092,3.049614,21.29002,-44.82713,1001.51
0.144842148,0.3076465,-0.5619977,0.2551689,-0.4971221,0.1390564,0.8339612,3.049614,21.29002,-44.82713,1001.51
0.147339344,0.1836257,-0.3831432,0.2550887,-0.4922499,0.1396145,0.8315662,3.049614,21.29002,-44.82713,1001.51
0.149837017,0.4314164,-0.5617007,0.1326082,-0.4931437,0.1346825,0.8273028,3.049614,21.29002,-44.82713,1001.51
0.152334213,0.2453946,-0.7402021,0.2549669,-0.492207,0.1371816,0.8311058,3.049614,21.29002,-44.82713,1001.51
0.154831409,-0.00253089,-0.5612917,0.1936866,-0.490738,0.1372711,0.8354033,3.049614,21.29002,-44.82713,1001.51
0.157328605,0.05943199,-0.1442003,0.1936258,-0.4912668,0.139118,0.8291807,3.049614,21.29002,-44.82713,1001.51
0.159825325,-0.002548765,-0.2632736,0.3159654,-0.4956463,0.1386348,0.8363517,3.049614,21.29002,-44.82713,1001.508
0.162322998,-0.002547964,-0.5609874,0.1934657,-0.4932755,0.1425504,0.8348894,3.049614,21.29002,-44.82713,1001.508
0.164822101,-0.002547164,-0.5608111,0.07100451,-0.494734,0.1420014,0.8325059,3.049614,21.29002,-44.82713,1001.508
0.167317390,-0.002546363,-0.5010756,0.1933826,-0.4932644,0.1414896,0.8282097,3.049614,21.29002,-44.82713,1001.508
0.169814586,-0.06450766,-0.4413589,0.2545221,-0.4946594,0.1375822,0.828716,3.049614,21.29002,-44.82713,1001.508
0.172311783,0.183361,-0.381661,0.3768425,-0.4913015,0.1410592,0.8291669,3.049614,21.29002,-44.82713,1001.508
0.174809456,0.1213413,-0.4411004,0.4379243,-0.4937825,0.1434911,0.83345,3.049614,21.29002,-44.82713,1001.508
0.177306652,0.05934107,-0.3814025,0.2541861,-0.4956347,0.1375805,0.8301497,3.049614,21.29002,-44.82713,1001.508
0.179808140,0.2452087,-0.3812827,0.2541063,-0.4897814,0.138224,0.8325299,3.049614,21.29002,-44.82713,1001.508
0.182301044,0.2451317,-0.2620443,0.131626,-0.4897509,0.1368326,0.8373165,3.049614,21.29002,-44.82713,1001.508
0.184798717,0.3070167,-0.08328406,0.07038449,-0.4931774,0.1372508,0.8377932,2.694571,20.53583,-45.25998,1001.508
0.187295914,0.3069203,-0.2619358,0.1927628,-0.493302,0.1439998,0.8344014,2.694571,20.53583,-45.25998,1001.508
0.189793110,0.2448618,-0.3809721,0.3151026,-0.494783,0.1449582,0.8358285,2.694571,20.53583,-45.25998,1001.508
0.192290306,-0.06502561,-0.499971,0.2538034,-0.4962383,0.1444543,0.8367882,2.694571,20.53583,-45.25998,1001.508
0.194787979,-0.1269673,-0.2615767,0.1313233,-0.495671,0.14011,0.8377742,2.694571,20.53583,-45.25998,1001.508
0.197285175,-0.06496529,-0.3210539,0.1924822,-0.4941397,0.1362141,0.8344575,2.694571,20.53583,-45.25998,1001.508
0.199782371,-0.002982786,-0.2018344,0.253622,-0.4961858,0.141549,0.8372866,2.694571,20.53583,-45.25998,1001.506
0.202279568,-0.002981849,-0.201771,0.1311419,-0.4927716,0.1415645,0.8329855,2.694571,20.53583,-45.25998,1001.506
0.204779625,0.3068295,-0.1421483,0.1311007,-0.4947088,0.1405326,0.831561,2.694571,20.53583,-45.25998,1001.506
0.207274437,0.182809,-0.2612222,0.4370605,-0.497719,0.144805,0.8291439,2.694571,20.53583,-45.25998,1001.506
0.209771633,0.1207894,-0.1420216,0.1921224,-0.4937505,0.1415113,0.8305981,2.694571,20.53583,-45.25998,1001.506
0.212268829,0.0587894,-0.3802142,0.1308618,-0.4912764,0.1395904,0.828222,2.694571,20.53583,-45.25998,1001.506
0.214765549,-0.003191154,-0.2609761,0.2532211,-0.4957184,0.1424785,0.8334584,2.694571,20.53583,-45.25998,1001.506
0.217263222,0.1826961,-0.02265694,0.2531416,-0.4962753,0.1463633,0.8343863,2.694571,20.53583,-45.25998,1001.506
0.219760418,-0.003247548,-0.02264982,0.253062,-0.4977407,0.1463253,0.8339097,2.694571,20.53583,-45.25998,1001.506
0.222257614,-0.1271707,-0.2608799,-0.1142187,-0.4990753,0.1390144,0.8339627,2.694571,20.53583,-45.25998,1001.506
0.224754810,-0.2510549,-0.2607979,0.130618,-0.4985697,0.1380543,0.8339693,2.694571,20.53583,-45.25998,1001.506
0.227252483,-0.3129382,-0.2011567,0.2529774,-0.4932054,0.1380667,0.8263234,2.694571,20.53583,-45.25998,1001.506
0.229749679,-0.2508778,-0.1415342,0.1916977,-0.4917407,0.138706,0.8353937,2.694571,20.53583,-45.25998,1001.506
0.232246876,-0.1268748,-0.1414898,0.2528377,-0.4955655,0.1343058,0.8392486,2.694571,20.53583,-45.25998,1001.506
0.234744072,0.1210135,-0.2010046,0.1303579,-0.4951582,0.1380312,0.8268025,3.043291,21.65891,-44.83355,1001.506
0.237241745,-0.06491083,-0.2009415,0.3139175,-0.4922339,0.1386246,0.8301402,3.043291,21.65891,-44.83355,1001.506
0.239738941,0.05903375,-0.2604376,0.3138189,-0.4922889,0.1421054,0.836325,3.043291,21.65891,-44.83355,1001.506
0.242236137,0.0590152,-0.2603558,0.2525201,-0.492779,0.1420691,0.8344149,3.043291,21.65891,-44.83355,1001.506
0.244733333,-0.002965428,-0.3793926,0.2524408,-0.4938776,0.1488359,0.8338896,3.043291,21.65891,-44.83355,1001.506
0.247230530,-0.312775,-0.3792734,0.1299611,-0.4967032,0.1429493,0.8339332,3.043291,21.65891,-44.83355,1001.506
0.249728203,-0.2507146,-0.2004764,0.06872003,-0.4947048,0.1405906,0.8358596,3.043291,21.65891,-44.83355,1001.506
0.252225399,-0.4365221,-0.2599727,0.06869844,-0.4922299,0.1386826,0.8344387,3.043291,21.65891,-44.83355,1001.506
0.254722595,-0.3744228,-0.3194503,0.1910773,-0.4937019,0.138548,0.826798,3.043291,21.65891,-44.83355,1001.506
0.257219791,-0.3123432,-0.1406721,0.06861683,-0.4942541,0.1418894,0.8234308,3.043291,21.65891,-44.83355,1001.506
0.259717464,-0.00243458,-0.2001872,0.1297955,-0.4917021,0.1362086,0.8301572,3.043291,21.65891,-44.83355,1001.506
0.262214660,-0.002433814,-0.140565,0.2521551,-0.4952332,0.1424439,0.8301147,3.043291,21.65891,-44.83355,1001.506
0.264711380,-0.1263572,-0.1405208,0.1296755,-0.4986743,0.1438714,0.8334501,3.043291,21.65891,-44.83355,1001.506
0.267208576,-0.002393354,-0.1404767,0.1296347,-0.4953121,0.1474129,0.8386772,3.043291,21.65891,-44.83355,1001.506
0.269705772,-0.4361272,-0.1404325,0.00719361,-0.4948562,0.1493968,0.8410512,3.043291,21.65891,-44.83355,1001.506
0.272203445,-0.5599144,-0.1403884,0.1295917,-0.4947865,0.1449067,0.8320075,3.043291,21.65891,-44.83355,1001.506
0.274700641,-0.4977764,-0.2594629,0.06835084,-0.4897979,0.1392075,0.8334782,3.043291,21.65891,-44.83355,1001.506
0.277197838,-0.49762,-0.3785,-0.1152712,-0.4937527,0.1414791,0.8282101,3.043291,21.65891,-44.83355,1001.506
0.279695034,-0.6213878,-0.3783811,-0.115235,-0.4937097,0.1390462,0.8277497,3.043291,21.65891,-44.83355,1001.508
0.282192707,-0.7451168,-0.1995843,-0.1151988,-0.4917807,0.1405698,0.8296483,3.043291,21.65891,-44.83355,1001.508
0.284689903,-0.4970344,-0.08040303,0.06843797,-0.4927692,0.140989,0.8263023,2.688248,20.90472,-45.2664,1001.508
0.287187099,-0.2490299,-0.08037776,0.007216271,-0.493701,0.1385609,0.8277531,2.688248,20.90472,-45.2664,1001.508
0.289684295,-0.4348379,-0.4377083,0.0684142,-0.4976182,0.1395441,0.8349134,2.688248,20.90472,-45.2664,1001.508
0.292181969,-0.4966634,-0.08021501,-0.05400769,-0.4961285,0.1381004,0.8334898,2.688248,20.90472,-45.2664,1001.508
0.294679165,-0.4345453,-0.0801898,0.00720948,-0.4947101,0.1405132,0.8301282,2.688248,20.90472,-45.2664,1001.508
0.297176361,-0.3104846,-0.1992832,-0.05399299,-0.4948243,0.1468028,0.8286504,2.688248,20.90472,-45.2664,1001.508
0.299673557,-0.1245008,-0.3183392,0.007224176,-0.4933294,0.1454364,0.8329582,2.688248,20.90472,-45.2664,1001.508
0.302171230,-0.2483858,-0.1395613,0.007221907,-0.496353,0.1507374,0.8348328,2.688248,20.90472,-45.2664,1001.508
0.304668426,-0.4341941,-0.1990767,-0.05398056,-0.4962232,0.1434515,0.834407,2.688248,20.90472,-45.2664,1001.508
0.307165623,-0.6199439,-0.1990142,-0.1151638,-0.4932773,0.1425246,0.832979,2.688248,20.90472,-45.2664,1001.508
0.309662819,-0.3719008,-0.07983309,-0.1763278,-0.4937166,0.1395572,0.8296567,2.688248,20.90472,-45.2664,1001.508
0.312160492,-0.2478598,-0.1393673,-0.1762724,-0.4936389,0.1351831,0.8292102,2.688248,20.90472,-45.2664,1001.508
0.314656734,-0.2477819,0.09891368,-0.05381665,-0.4946024,0.1347412,0.8339906,2.688248,20.90472,-45.2664,1001.508
0.317154407,-0.1237799,-0.2584732,-0.05379975,-0.493773,0.1430187,0.8344087,2.688248,20.90472,-45.2664,1001.508
0.322148800,-0.4334347,-0.2583108,-0.05378518,-0.4922441,0.1396983,0.8377752,2.688248,20.90472,-45.2664,1001.505
0.322148800,-0.4334347,-0.2583108,-0.05378518,-0.4922441,0.1396983,0.8377752,2.688248,20.90472,-45.2664,1001.505
0.324645996,-0.2474123,-0.07955177,-0.05376828,-0.4932399,0.1406221,0.8358585,2.688248,20.90472,-45.2664,1001.505
0.329640865,-0.3712005,-0.01997992,-0.1761541,-0.493286,0.1430099,0.8329755,2.688248,20.90472,-45.2664,1001.505
0.329640865,-0.3712005,-0.01997992,-0.1761541,-0.493286,0.1430099,0.8329755,2.688248,20.90472,-45.2664,1001.505
0.332138061,-0.4950081,-0.07953294,0.007501811,-0.49429,0.1444255,0.831533,2.688248,20.90472,-45.2664,1001.505
0.334635258,-0.1850421,-0.07950795,0.007499453,-0.4971513,0.1404672,0.8306075,3.06226,20.55225,-44.81428,1001.505
0.339630127,-0.1229832,0.09918247,-0.05364778,-0.4927565,0.1405617,0.8306043,3.06226,20.55225,-44.81428,1001.505
0.342127323,0.0009795688,0.1587106,0.007569276,-0.4942078,0.1401158,0.8358627,3.06226,20.55225,-44.81428,1001.505
0.342127323,0.0009795688,0.1587106,0.007569276,-0.4942078,0.1401158,0.8358627,3.06226,20.55225,-44.81428,1001.505
0.344624519,-0.06098283,-0.198695,0.007566899,-0.4965951,0.1371837,0.8382733,3.06226,20.55225,-44.81428,1001.505
0.347122192,-0.3088121,-0.1390733,-0.05363568,-0.4962149,0.1429598,0.8339329,3.06226,20.55225,-44.81428,1001.505
0.352116585,-0.4325227,-0.01992349,-0.1759832,-0.4961742,0.1404946,0.8310844,3.06226,20.55225,-44.81428,1001.505
0.354613781,-0.2465006,-0.1390358,-0.1147277,-0.4927643,0.1410599,0.8315561,3.06226,20.55225,-44.81428,1001.505
0.357111454,-0.122499,-0.1985515,0.007708773,-0.4937021,0.1391557,0.8358693,3.06226,20.55225,-44.81428,1001.505
0.359608650,-0.1224605,-0.1389298,0.1301067,-0.4956472,0.1386219,0.8353965,3.06226,20.55225,-44.81428,1001.505
0.362105846,0.001502167,-0.1388861,-0.1147349,-0.492322,0.1434582,0.8286727,3.06226,20.55225,-44.81428,1001.507
0.362105846,0.001502167,-0.1388861,-0.1147349,-0.492322,0.1434582,0.8286727,3.06226,20.55225,-44.81428,1001.507
0.367099762,0.001598554,-0.01975513,-0.2981865,-0.4971186,0.1391079,0.8377822,3.06226,20.55225,-44.81428,1001.507
0.369596958,-0.1223261,-0.1984268,0.007908143,-0.496689,0.1419336,0.8305968,3.06226,20.55225,-44.81428,1001.507
0.372094631,0.001636481,-0.1388052,-0.1144947,-0.4947714,0.1439039,0.8296263,3.06226,20.55225,-44.81428,1001.507
0.374591827,0.001635967,-0.01964298,-0.1144588,-0.4966365,0.1390282,0.8310952,3.06226,20.55225,-44.81428,1001.507
0.377089023,-0.06032664,-0.1983147,0.007977586,-0.4931793,0.1366109,0.8263338,3.06226,20.55225,-44.81428,1001.507
0.379586220,-0.06030769,-0.2578117,0.007975079,-0.4946636,0.1381319,0.8334888,3.06226,20.55225,-44.81428,1001.507
0.382083893,0.001673352,-0.1386121,0.06917277,-0.4942027,0.1395789,0.8320452,3.06226,20.55225,-44.81428,1001.507
0.384581089,-0.06028926,0.04010934,-0.1144496,-0.4952254,0.1419457,0.8291629,2.675602,21.64249,-45.27925,1001.507
0.387078285,0.001691768,0.04009674,-0.1144136,-0.4952288,0.1425084,0.8348908,2.675602,21.64249,-45.27925,1001.507
0.389575481,-0.1222329,-0.1385938,-0.05317746,-0.4966759,0.1415127,0.8353765,2.675602,21.64249,-45.27925,1001.507
0.392073154,0.06369173,-0.07899091,-0.05316075,-0.4951767,0.1395966,0.8349116,2.675602,21.64249,-45.27925,1001.507
0.394570351,0.06367172,-0.1385254,-0.2367447,-0.4898635,0.1425337,0.8282002,2.675602,21.64249,-45.27925,1001.507
0.397067547,0.1875759,-0.01936328,-0.05306967,-0.4942904,0.144419,0.8310553,2.675602,21.64249,-45.27925,1001.507
0.399564743,-0.0603314,-0.1384758,-0.053053,-0.4953107,0.1474322,0.8401101,2.675602,21.64249,-45.27925,1001.507
0.402062893,-0.2461987,-0.07887299,-0.05303634,-0.4932303,0.1401497,0.8368171,2.675602,21.64249,-45.27925,1001.505
0.404559612,-0.2461214,-0.01928892,0.008180529,-0.4984317,0.1302766,0.8330694,2.675602,21.64249,-45.27925,1001.505
0.407056808,-0.1221199,-0.01928286,0.06937816,-0.4916788,0.1347141,0.8273017,2.675602,21.64249,-45.27925,1001.505
0.409554005,0.1257669,-0.1383954,0.06935637,-0.4883203,0.1388117,0.8377792,2.675602,21.64249,-45.27925,1001.505
0.412051678,0.2496515,0.04032598,0.06933457,-0.4918206,0.1430479,0.833452,2.675602,21.64249,-45.27925,1001.505
0.414548874,0.1256489,0.2189912,0.0693128,-0.4976507,0.1415175,0.8372877,2.675602,21.64249,-45.27925,1001.505
0.417046070,-0.1222389,0.04024451,-0.1143096,-0.4918084,0.1426141,0.8372764,2.675602,21.64249,-45.27925,1001.505
0.419542789,-0.4320109,-0.1980053,-0.1142737,-0.4956481,0.138609,0.8344412,2.675602,21.64249,-45.27925,1001.505
0.422039986,-0.3699131,-0.01926523,0.008162629,-0.4947244,0.1415289,0.8334646,2.675602,21.64249,-45.27925,1001.505
0.424537182,-0.1839107,-0.1383778,-0.05304014,-0.491779,0.1405956,0.8315588,2.675602,21.64249,-45.27925,1001.505
0.427034855,-0.1218908,0.0403436,0.1917773,-0.4922065,0.137188,0.8315834,2.675602,21.64249,-45.27925,1001.505
0.429532051,-0.1218525,0.2190088,-0.05308372,-0.4941709,0.1382068,0.8382646,2.675602,21.64249,-45.27925,1001.505
0.432029247,0.1260341,0.1593807,0.008133158,-0.4947227,0.1415547,0.8353751,2.675602,21.64249,-45.27925,1001.505
0.434526443,0.3118808,0.09977135,0.130531,-0.4889186,0.144541,0.831529,3.049449,21.28153,-45.27359,1001.505
0.437024116,0.001972381,0.2784179,0.0692898,-0.4947788,0.1444085,0.8310557,3.049449,21.28153,-45.27359,1001.505
0.439521313,-0.1219524,0.397449,0.008067828,-0.4976561,0.1414401,0.8315563,3.049449,21.28153,-45.27359,1001.505
0.442018509,-0.05995202,0.159087,-0.2367355,-0.4976187,0.1395376,0.8344358,3.049449,21.28153,-45.27359,1001.508
0.444515705,0.002028909,0.09947771,-0.1142607,-0.4970141,0.1326766,0.8287524,3.049449,21.28153,-45.27359,1001.508
0.447013378,-0.183858,0.2781244,0.130576,-0.4970288,0.1336859,0.8316112,3.049449,21.28153,-45.27359,1001.508
0.449510574,0.06404812,0.1589184,0.1305349,-0.4972274,0.1442529,0.8234156,3.049449,21.28153,-45.27359,1001.508
0.452007770,0.3118764,0.1588684,0.06929374,-0.4957186,0.1418644,0.8239095,3.049449,21.28153,-45.27359,1001.508
0.454504967,0.1878542,0.1588185,0.008071762,-0.4951976,0.1405156,0.8310837,3.049449,21.28153,-45.27359,1001.508
0.457002640,0.001908915,0.09920935,0.008069225,-0.4943125,0.1459329,0.8353436,3.049449,21.28153,-45.27359,1001.508
0.459499836,0.0638704,0.09917818,0.008066691,-0.4977311,0.1458529,0.8348684,3.049449,21.28153,-45.27359,1001.508
0.461997032,0.001888249,0.03958772,0.008064158,-0.5011325,0.1441882,0.8248514,3.049449,21.28153,-45.27359,1001.508
0.464494228,0.06384975,0.03957529,0.008061625,-0.4956634,0.1389977,0.8272735,3.049449,21.28153,-45.27359,1001.508
0.466991901,0.06382969,-0.07955575,0.1304595,-0.4956015,0.1362277,0.8378019,3.049449,21.28153,-45.27359,1001.508
0.469488144,0.1257717,0.03958785,0.1304185,-0.4937364,0.1411033,0.836333,3.049449,21.28153,-45.27359,1001.508
0.471985817,0.1257322,0.158694,0.1915777,-0.493654,0.1361859,0.8315914,3.049449,21.28153,-45.27359,1001.508
0.474483013,0.1256927,0.09908485,-0.1144835,-0.4950947,0.1346727,0.8296924,3.049449,21.28153,-45.27359,1001.508
0.476982117,0.3735016,0.09905373,0.007952917,-0.494742,0.1418854,0.8239087,3.049449,21.28153,-45.27359,1001.508
0.479477405,0.2494601,0.03946331,0.007950418,-0.4923107,0.1430116,0.831542,3.049449,21.28153,-45.27359,1001.508
0.481975078,0.06349543,-0.02010839,0.007947922,-0.4941562,0.1371976,0.8354058,3.049449,21.28153,-45.27359,1001.506
0.484472275,-0.1224108,0.2181351,-0.05325478,-0.4952526,0.1439965,0.8372686,2.308243,21.64306,-44.83202,1001.506
0.486969471,-0.1223723,0.098948,0.06916235,-0.4922308,0.1386697,0.8334835,2.308243,21.64306,-44.83202,1001.506
0.489466667,0.06355238,0.09891692,0.007940426,-0.4971326,0.1395159,0.8320473,2.308243,21.64306,-44.83202,1001.506
0.491964340,0.2494187,0.2775638,-0.05326227,-0.4980896,0.1385565,0.834443,2.308243,21.64306,-44.83202,1001.506
0.494461536,0.001491966,0.09879864,0.007954665,-0.4941702,0.1376055,0.8296709,2.308243,21.64306,-44.83202,1001.506
0.496958732,0.1873778,-0.020351,0.06915237,-0.4922764,0.1410639,0.8310781,2.308243,21.64306,-44.83202,1001.506
0.499455929,0.06339472,-0.07990391,0.06913064,-0.491863,0.1461014,0.8439388,2.308243,21.64306,-44.83202,1001.506
0.501953602,0.001412714,0.09879909,-0.1144917,-0.4919299,0.1494083,0.837228,2.308243,21.64306,-44.83202,1001.506
0.504450798,-0.06054982,0.03920875,-0.1144557,-0.4918344,0.14407,0.837266,2.308243,21.64306,-44.83202,1001.506
0.506947994,-0.1224929,0.09875573,0.007980645,-0.4932555,0.1416184,0.8377621,2.308243,21.64306,-44.83202,1001.506
0.509445190,-0.1224544,0.03916541,0.007978138,-0.4971495,0.1404929,0.832518,2.308243,21.64306,-44.83202,1001.506
0.511942863,0.001508247,0.09871241,0.130376,-0.4976552,0.141453,0.8325115,2.308243,21.64306,-44.83202,1001.506
0.514440060,0.06346986,0.03912209,0.007934671,-0.4927859,0.1425802,0.8363219,2.308243,21.64306,-44.83202,1001.506
0.516937256,0.06344992,-0.0204495,0.007932179,-0.4951662,0.1391371,0.8368255,2.308243,21.64306,-44.83202,1001.506
0.519434452,-0.1844184,-0.02044307,-0.1144707,-0.4937585,0.1426172,0.8406212,2.308243,21.64306,-44.83202,1001.506
0.521931171,0.001525838,-0.02043665,0.06916585,-0.49421,0.1400836,0.8334746,2.308243,21.64306,-44.83202,1001.509
0.524429321,0.1254495,-0.1991081,-0.05325628,-0.4921867,0.1356419,0.8249071,2.308243,21.64306,-44.83202,1001.509
0.526926041,0.001485948,-0.02036768,0.007960647,-0.4951364,0.137125,0.8315856,2.308243,21.64306,-44.83202,1001.509
0.529423237,-0.06047661,0.03919802,0.007958148,-0.4937734,0.1430123,0.8339311,2.308243,21.64306,-44.83202,1001.509
0.531920433,0.1254287,-0.02037359,0.007955648,-0.4966612,0.1405034,0.8325177,2.308243,21.64306,-44.83202,1001.509
0.534417629,0.2493134,-0.02036719,0.1915538,-0.4933181,0.1449898,0.8358274,2.681925,21.2736,-45.27282,1001.509
0.536915302,0.1253109,-0.02036079,0.00789297,-0.4902922,0.139721,0.8363408,2.681925,21.2736,-45.27282,1001.509
0.539412498,0.1872337,-0.0799137,0.007890489,-0.4976756,0.1423785,0.8291612,2.681925,21.2736,-45.27282,1001.509
0.541909695,0.3730611,-0.02032929,0.007888012,-0.4970582,0.1357044,0.8373288,2.681925,21.2736,-45.27282,1001.509
0.544406891,0.1250955,0.03923639,0.1302859,-0.4897449,0.1363086,0.8344542,2.681925,21.2736,-45.27282,1001.509
0.546904564,0.06309415,0.09878337,0.1914452,-0.4956512,0.1385639,0.8310979,2.681925,21.2736,-45.27282,1001.509
0.549401760,0.2489606,0.1583116,0.1301849,-0.4991261,0.1419455,0.8353748,2.681925,21.2736,-45.27282,1001.509
0.551898956,0.3108445,0.09870259,-0.05345664,-0.495701,0.1415079,0.8334653,2.681925,21.2736,-45.27282,1001.509
0.554396152,0.3727089,0.2177902,0.06896055,-0.4941927,0.139113,0.8334815,2.681925,21.2736,-45.27282,1001.509
0.556893825,0.1867056,0.1581625,0.3137397,-0.496593,0.1366017,0.8311124,2.681925,21.2736,-45.27282,1001.509
0.559391022,0.0007606279,0.09855348,0.2524409,-0.4942465,0.141999,0.8315503,2.681925,21.2736,-45.27282,1001.509
0.561888218,0.2486088,0.2176411,0.2523616,-0.4938264,0.1459112,0.8329551,2.681925,21.2736,-45.27282,1001.507
0.564385414,0.3724549,-0.02066446,0.1910821,-0.4942269,0.1410606,0.8339453,2.681925,21.2736,-45.27282,1001.507
0.566883087,0.3723378,-0.08021727,0.1298219,-0.4922737,0.1411026,0.8339438,2.681925,21.2736,-45.27282,1001.507
0.569380283,0.3722209,0.1580451,0.1909813,-0.4922816,0.1416008,0.8348956,2.681925,21.2736,-45.27282,1001.507
0.571877479,0.434066,0.2175548,0.2521215,-0.4942613,0.1430082,0.8344091,2.681925,21.2736,-45.27282,1001.507
0.574374676,0.1860813,0.1579271,0.2520423,-0.4962225,0.1428502,0.8258134,2.681925,21.2736,-45.27282,1001.507
0.576871395,0.1860228,0.1578775,0.1295627,-0.4957006,0.1415144,0.8339429,2.681925,21.2736,-45.27282,1001.507
0.579369545,0.3098886,0.3365058,0.129522,-0.4913172,0.1420556,0.8310704,2.681925,21.2736,-45.27282,1001.507
0.581866264,0.3717533,0.1577222,0.1906815,-0.4961984,0.1419763,0.8329846,2.681925,21.2736,-45.27282,1001.507
0.584363460,0.2477123,0.09811336,0.1906216,-0.4951593,0.138626,0.8349185,2.68209,21.2821,-44.82636,1001.507
0.586860657,0.1856724,0.1576418,0.4353626,-0.489858,0.1420033,0.8248603,2.68209,21.2821,-44.82636,1001.507
0.589357853,0.3095383,-0.08064489,0.2516252,-0.4922911,0.1420732,0.8339369,2.68209,21.2821,-44.82636,1001.507
0.591855526,0.2474789,0.09805834,0.2515461,-0.4932691,0.1420329,0.8325048,2.68209,21.2821,-44.82636,1001.507
0.594352722,0.123477,0.2767054,0.3126673,-0.4936995,0.1391944,0.8387349,2.68209,21.2821,-44.82636,1001.507
0.596849918,0.1854003,0.574415,0.1901687,-0.4982711,0.1487606,0.8353257,2.68209,21.2821,-44.82636,1001.507
0.599347114,0.2473041,0.455116,0.1901089,-0.4932786,0.1425053,0.8315461,2.68209,21.2821,-44.82636,1001.507
0.601844788,0.2472264,0.2762951,0.1900492,-0.4938264,0.1459112,0.8329551,2.68209,21.2821,-44.82636,1001.508
0.604341984,0.1851867,0.216649,0.1287893,-0.495184,0.1401012,0.836341,2.68209,21.2821,-44.82636,1001.508
0.606839180,0.1231664,0.2165809,0.1899491,-0.4927928,0.1430913,0.8382289,2.68209,21.2821,-44.82636,1001.508
0.609336376,0.2470519,0.2165129,0.1898894,-0.4893138,0.1397678,0.8382506,2.68209,21.2821,-44.82636,1001.508
0.611834049,0.3089364,-0.02179235,0.1898297,-0.4927351,0.1396491,0.8349098,2.68209,21.2821,-44.82636,1001.508
0.614331245,0.1849152,0.2164517,0.1897701,-0.4932713,0.1420007,0.8301167,2.68209,21.2821,-44.82636,1001.508
0.616828442,-0.001029221,0.275943,0.1285103,-0.4922838,0.1415686,0.8325076,2.68209,21.2821,-44.82636,1001.508
0.619325638,-0.001028897,0.4545342,0.2508703,-0.4878382,0.138732,0.8310921,2.68209,21.2821,-44.82636,1001.508
0.621823311,0.1848577,0.2161542,0.2507915,-0.4928086,0.1434735,0.8305836,2.68209,21.2821,-44.82636,1001.508
0.624320507,0.2467617,0.0969677,0.06711208,-0.493304,0.1445818,0.8415623,2.68209,21.2821,-44.82636,1001.508
0.626817226,-0.1250883,0.2756152,0.1282912,-0.4937903,0.1439893,0.8344018,2.68209,21.2821,-44.82636,1001.508
0.629314423,-0.1870111,0.3946472,0.0670507,-0.4922078,0.1371687,0.8301506,2.68209,21.2821,-44.82636,1001.508
0.631811619,0.1848202,0.2158453,0.18943,-0.4917503,0.1391784,0.8344349,2.68209,21.2821,-44.82636,1001.508
0.634309292,0.5565346,0.2753368,0.06697012,-0.4995437,0.1380719,0.8368357,3.036968,22.0278,-44.83997,1001.508
0.636806488,0.06066306,0.3348096,-0.05545133,-0.4986725,0.1438972,0.8353606,3.036968,22.0278,-44.83997,1001.508
0.639303684,-0.4350527,0.2751451,0.0669665,-0.4918834,0.1470269,0.8405886,3.036968,22.0278,-44.83997,1001.508
0.641802788,-0.2490298,0.3346179,0.06694546,-0.4891925,0.1323594,0.8287501,3.036968,22.0278,-44.83997,1001.508
0.644298553,0.3087073,0.2749535,0.250525,-0.4931506,0.1351936,0.8292099,3.036968,22.0278,-44.83997,1001.508
0.646795750,0.6184208,0.2748671,0.2504463,-0.4952947,0.1464423,0.8386841,3.036968,22.0278,-44.83997,1001.508
0.649292946,0.308416,0.5725773,0.1279672,-0.4952873,0.1459377,0.8372548,3.036968,22.0278,-44.83997,1001.508
0.651790142,0.1224329,0.4532788,0.005526636,-0.4934051,0.1492286,0.8262439,3.036968,22.0278,-44.83997,1001.508
0.654287338,-0.001529794,0.2148992,0.0055249,-0.4937462,0.1409616,0.8258254,3.036968,22.0278,-44.83997,1001.508
0.656785011,0.3702433,0.2148317,0.06672336,-0.4996427,0.1433586,0.8329768,3.036968,22.0278,-44.83997,1001.508
0.659282207,0.3701269,0.09564559,0.1279026,-0.4957404,0.1439924,0.8377466,3.036968,22.0278,-44.83997,1001.508
0.661779404,0.1221623,0.2742935,0.1278624,-0.4932551,0.1416249,0.8382397,3.036968,22.0278,-44.83997,1001.508
0.664276600,-0.1257245,0.2742073,0.1278223,-0.4961615,0.1400673,0.8353865,3.036968,22.0278,-44.83997,1001.508
0.666774273,0.3080497,0.3932397,0.3113827,-0.4991049,0.1404187,0.8301315,3.036968,22.0278,-44.83997,1001.508
0.669271469,0.4938391,0.4526755,0.3112849,-0.4941571,0.1371847,0.8344505,3.036968,22.0278,-44.83997,1001.508
0.671768665,0.4317219,0.3334147,0.1887867,-0.497172,0.1420004,0.8363286,3.036968,22.0278,-44.83997,1001.508
0.674265861,0.3696242,0.3333099,0.1887274,-0.4985966,0.1394973,0.8330036,3.036968,22.0278,-44.83997,1001.508
0.676763534,0.2455839,0.5118831,0.1274679,-0.4981388,0.1408992,0.8282167,3.036968,22.0278,-44.83997,1001.508
0.679260254,0.1215826,0.452163,0.3110285,-0.4985414,0.1366306,0.8363677,3.036968,22.0278,-44.83997,1001.508
0.681757450,0.4313548,0.2137838,0.2497305,-0.4946512,0.1370904,0.8282419,3.036968,22.0278,-44.83997,1001.508
0.684254646,0.7410298,0.1541573,0.3108523,-0.4927634,0.1410728,0.8325114,3.055937,20.92114,-44.8207,1001.508
0.686751842,0.8647212,0.3923461,0.2495544,-0.4942824,0.144535,0.8396525,3.055937,20.92114,-44.8207,1001.508
0.689249515,0.4926769,0.4517821,0.1270756,-0.4962383,0.1444543,0.8367882,3.055937,20.92114,-44.8207,1001.508
0.691746712,0.4305601,0.2729623,0.3718365,-0.4977006,0.1444615,0.839655,3.055937,20.92114,-44.8207,1001.508
0.694243908,0.3684627,0.2728765,0.3717197,-0.4947587,0.1434766,0.8339283,3.055937,20.92114,-44.8207,1001.508
0.696741104,0.5542333,0.3919094,0.3104027,-0.4946104,0.1346253,0.8253934,3.055937,20.92114,-44.8207,1001.508
0.699238777,0.6160213,0.3917863,0.249105,-0.493687,0.1381529,0.833488,3.055937,20.92114,-44.8207,1001.508
0.701735973,0.4919035,0.3916632,0.2490267,-0.4946966,0.1400988,0.8353854,3.055937,20.92114,-44.8207,1001.508
0.704233169,0.491749,0.4510995,0.2489485,-0.4951963,0.140535,0.8325166,3.055937,20.92114,-44.8207,1001.508
0.706730366,0.5535566,0.510517,0.2488703,-0.4951606,0.1386067,0.8334857,3.055937,20.92114,-44.8207,1001.508
0.709228039,0.4294585,0.6294752,0.4323927,-0.4931417,0.1353225,0.8387622,3.055937,20.92114,-44.8207,1001.508
0.711725235,0.6152099,0.6292775,0.493457,-0.4931704,0.1367397,0.8358862,3.055937,20.92114,-44.8207,1001.508
0.714222431,0.6150166,0.4504019,0.493302,-0.4932443,0.1405576,0.8310823,3.055937,20.92114,-44.8207,1001.508
0.716719627,0.8626717,0.569379,0.3707467,-0.4898013,0.1397701,0.8392062,3.055937,20.92114,-44.8207,1001.508
0.719217300,0.8004386,0.5692002,0.4318304,-0.4956788,0.1406082,0.838726,3.055937,20.92114,-44.8207,1001.508
0.721714497,0.8001872,0.6881399,0.4928949,-0.496257,0.1454056,0.8353485,3.055937,20.92114,-44.8207,1001.508
0.724211693,0.3662011,0.6879237,0.5539403,-0.4919032,0.1473511,0.8286447,3.055937,20.92114,-44.8207,1001.51
0.726708889,0.3660861,0.6281483,0.3701656,-0.4926964,0.1377659,0.8392223,3.055937,20.92114,-44.8207,1001.51
0.729208946,0.304009,0.6875103,0.3088492,-0.4932074,0.1386487,0.8334842,3.055937,20.92114,-44.8207,1001.51
0.731703758,0.5517618,0.627735,0.4311526,-0.4941455,0.1361303,0.8282484,3.055937,20.92114,-44.8207,1001.51
0.734200954,0.4896264,0.7466564,0.4922173,-0.4927347,0.1396556,0.8353875,3.049614,21.29002,-44.82713,1001.51
0.736697674,0.3655484,0.8059811,0.4308625,-0.494194,0.1390936,0.8320487,3.049614,21.29002,-44.82713,1001.51
0.739194870,0.4273956,0.9248465,0.4919273,-0.4928476,0.1459644,0.8353425,3.049614,21.29002,-44.82713,1001.51
0.741692066,0.5511855,0.8649967,0.3693723,-0.4976941,0.143944,0.8372704,3.049614,21.29002,-44.82713,1001.51
0.744189739,0.4270882,0.9242842,0.5528569,-0.4971934,0.142913,0.8320231,3.049614,21.29002,-44.82713,1001.51
0.746686935,0.364992,0.8644345,0.3690826,-0.4957823,0.1458305,0.8300909,3.049614,21.29002,-44.82713,1001.51
0.749184132,0.178991,0.7450444,0.4913671,-0.4907754,0.1391736,0.8325237,3.049614,21.29002,-44.82713,1001.51
0.751681328,0.3028589,0.8639289,0.5524129,-0.4932559,0.141612,0.8372844,3.049614,21.29002,-44.82713,1001.51
0.754179001,0.6745363,1.042335,0.5522394,-0.4918157,0.1431187,0.8387058,3.049614,21.29002,-44.82713,1001.51
0.756676197,0.6123624,1.042008,0.5520658,-0.4952263,0.1419329,0.8282077,3.049614,21.29002,-44.82713,1001.51
0.759173393,0.3643216,0.9225619,0.4294921,-0.4977658,0.1477941,0.8348546,3.049614,21.29002,-44.82713,1001.51
0.761670589,0.3642071,0.9818315,0.4905573,-0.4947447,0.1430686,0.8396632,3.049614,21.29002,-44.82713,1001.51
0.764168262,0.3021306,1.21976,0.3680028,-0.4912555,0.1386714,0.8320499,3.049614,21.29002,-44.82713,1001.508
0.766665459,0.487922,1.278936,0.4902876,-0.4946632,0.1381383,0.8339664,3.049614,21.29002,-44.82713,1001.508
0.769162655,0.3018824,1.278534,0.5513337,-0.4965712,0.1356956,0.8358956,3.049614,21.29002,-44.82713,1001.508
0.771659851,-0.06998494,1.456811,0.4899603,-0.488783,0.1373389,0.8373123,3.049614,21.29002,-44.82713,1001.508
0.774157524,-0.5036976,1.396794,0.4898064,-0.4834984,0.1423074,0.8372737,3.049614,21.29002,-44.82713,1001.508
0.776654720,0.3019678,1.336796,0.4896525,-0.4902463,0.136719,0.8296749,3.049614,21.29002,-44.82713,1001.508
0.779151916,1.231304,1.515054,0.5506989,-0.5009758,0.1354593,0.8253912,3.049614,21.29002,-44.82713,1001.508
0.781649113,1.29288,1.455018,0.6729263,-0.4967068,0.1428977,0.8301123,3.049614,21.29002,-44.82713,1001.508
0.784146786,0.6728525,1.514121,0.5503145,-0.4917454,0.1392493,0.8396887,2.675767,21.65099,-44.83278,1001.508
0.786643982,0.7346033,1.632763,0.5501416,-0.4971148,0.1385518,0.8325319,2.675767,21.65099,-44.83278,1001.508
0.789140701,0.8582966,1.513132,0.6723692,-0.4945913,0.1336804,0.8273108,2.675767,21.65099,-44.83278,1001.508
0.791637897,0.9819512,1.512657,0.5497575,-0.4932031,0.138099,0.8287115,2.675767,21.65099,-44.83278,1001.508
0.794135094,1.167529,1.452622,0.6719852,-0.4948026,0.1458966,0.8334334,2.675767,21.65099,-44.83278,1001.508
0.796632290,1.229124,1.452166,0.6717741,-0.5011737,0.1466469,0.8272222,2.675767,21.65099,-44.83278,1001.508
0.799129963,0.9808897,1.273031,0.6715631,-0.5005915,0.1419075,0.8348983,2.675767,21.65099,-44.83278,1001.508
0.801627159,0.7946953,1.451309,0.7325523,-0.4991592,0.1432983,0.8277225,2.675767,21.65099,-44.83278,1001.508
0.804124355,0.8564078,1.272176,0.6099218,-0.5015901,0.1421785,0.820567,2.675767,21.65099,-44.83278,1001.512
0.806621551,1.042025,1.212217,0.7321305,-0.4986672,0.1427526,0.8224719,2.675767,21.65099,-44.83278,1001.512
0.809119225,1.165622,1.211836,0.7319005,-0.5011413,0.1446735,0.8248479,2.675767,21.65099,-44.83278,1001.512
0.811616421,1.165256,1.151896,0.6092702,-0.4996037,0.1408677,0.8282179,2.675767,21.65099,-44.83278,1001.512
0.814113617,0.8550791,0.9132968,0.670279,-0.4976839,0.1428703,0.8296354,2.675767,21.65099,-44.83278,1001.512
0.816610813,0.3591137,0.8534505,0.7924688,-0.497182,0.1424663,0.8348923,2.675767,21.65099,-44.83278,1001.512
0.819108486,0.2970388,0.7340639,0.5474191,-0.4988068,0.1511187,0.8310102,2.675767,21.65099,-44.83278,1001.512
0.821605682,0.2969455,0.6147146,0.6084473,-0.4958048,0.1473379,0.8339014,2.675767,21.65099,-44.83278,1001.512
0.824102879,0.2968522,0.8527587,0.6694563,-0.4986601,0.1428557,0.8301138,2.675767,21.65099,-44.83278,1001.512
0.826600075,0.4206831,0.7333722,0.6080458,-0.5017542,0.151412,0.8214566,2.675767,21.65099,-44.83278,1001.512
0.829097748,0.7303615,0.4353453,0.5466546,-0.4961165,0.1370524,0.8277653,2.675767,21.65099,-44.83278,1001.512
0.831594944,0.5442457,0.733005,0.4852827,-0.494198,0.1390357,0.82775,2.675767,21.65099,-44.83278,1001.512
0.834092140,-0.7571291,0.6136562,0.1791292,-0.5148916,0.1487535,0.8253046,2.675602,21.64249,-45.27925,1001.512
0.836589336,-2.058095,0.9112599,0.1790729,-0.5131493,0.1332491,0.8249365,2.675602,21.64249,-45.27925,1001.512
0.839087009,-0.1985859,0.8514143,0.8522189,-0.481815,0.1290039,0.8201717,2.675602,21.64249,-45.27925,1001.512
0.841588974,2.58977,-0.1613613,1.096752,-0.4766213,0.1399893,0.8344202,2.675602,21.64249,-45.27925,1001.512
0.844080925,2.031298,-0.4591071,0.7292062,-0.4871243,0.1545016,0.8472198,2.675602,21.64249,-45.27925,1001.509
0.846578121,0.667494,0.4344266,0.7901773,-0.4955048,0.1580636,0.8366907,2.675602,21.64249,-45.27925,1001.509
0.849075317,0.7912084,1.26812,0.789929,-0.5006264,0.1432346,0.8253356,2.675602,21.64249,-45.27925,1001.509
0.851572514,1.720391,0.5530104,0.6672805,-0.4991034,0.1398303,0.822493,2.675602,21.64249,-45.27925,1001.509
0.854070187,1.843775,-0.3405529,0.9118716,-0.4972397,0.1459085,0.8382114,2.675602,21.64249,-45.27925,1001.509
0.856567383,0.9757264,-0.1022087,0.7279846,-0.499819,0.1530259,0.8300419,2.675602,21.64249,-45.27925,1001.509
0.859064579,0.7275716,0.3742978,0.6053555,-0.5019975,0.137839,0.8234642,2.675602,21.64249,-45.27925,1001.509
0.861561775,0.9132293,0.3741802,0.3603645,-0.5005436,0.1383236,0.8210716,2.675602,21.64249,-45.27925,1001.509
0.864059448,1.284715,-0.04285243,0.6662523,-0.4967794,0.146735,0.8267413,2.675602,21.64249,-45.27925,1001.509
0.866559029,1.098425,-0.1023983,0.7884434,-0.4963251,0.1493073,0.8367536,2.675602,21.64249,-45.27925,1001.509
0.869053841,0.478459,0.0763118,0.6657953,-0.4903948,0.1449561,0.8286609,2.675602,21.64249,-45.27925,1001.509
0.871551037,0.5402708,0.1954064,0.5431857,-0.4903445,0.1420186,0.8267712,2.675602,21.64249,-45.27925,1001.509
0.874048710,1.035798,0.1357857,0.6042153,-0.497608,0.1384704,0.8272784,2.675602,21.64249,-45.27925,1001.509
0.876545906,1.407245,0.07618378,0.6040255,-0.5002114,0.1476836,0.8305579,2.675602,21.64249,-45.27925,1001.509
0.879043102,1.096992,0.07615985,0.6038357,-0.4919951,0.1527409,0.8324276,2.675602,21.64249,-45.27925,1001.509
0.881540298,0.9107615,-0.04298268,0.603646,-0.4920821,0.1569797,0.8228441,2.675602,21.64249,-45.27925,1001.509
0.884037971,0.7245891,-0.04296917,0.4198558,-0.4938862,0.1493212,0.8338861,2.681925,21.2736,-45.27282,1001.51
0.886535168,0.6004373,-0.102515,0.5421243,-0.4948616,0.1493195,0.8353198,2.681925,21.2736,-45.27282,1001.51
0.889032364,0.6002486,-0.04292347,0.4807537,-0.4972828,0.1477273,0.8291228,2.681925,21.2736,-45.27282,1001.51
0.891530514,0.6620222,-0.04290998,0.5418029,-0.4973176,0.1496685,0.829109,2.681925,21.2736,-45.27282,1001.51
0.894026279,0.6618142,-0.1024558,0.4192323,-0.4954625,0.1550101,0.8262039,2.681925,21.2736,-45.27282,1001.51
0.896523476,0.7235684,-0.04286432,0.2355,-0.498395,0.1549084,0.8233403,2.681925,21.2736,-45.27282,1001.51
0.899021149,0.5994169,-0.2215288,0.1130256,-0.4954173,0.1526094,0.8281316,2.681925,21.2736,-45.27282,1001.51
0.901518345,0.1654939,-0.1618998,0.2353905,-0.4958627,0.150166,0.8276716,2.681925,21.2736,-45.27282,1001.51
0.904015541,0.1034798,-0.04273039,0.1741163,-0.4958061,0.1473186,0.8324686,2.681925,21.2736,-45.27282,1001.51
0.906512737,0.2273715,-0.1022763,0.05166123,-0.4928271,0.1450389,0.8386927,2.681925,21.2736,-45.27282,1001.51
0.909010410,0.04141377,-0.4595999,0.1128452,-0.4973301,0.1507099,0.8343559,2.681925,21.2736,-45.27282,1001.51
0.911507606,-0.02056133,-0.4594555,-0.07079085,-0.4987344,0.1466672,0.8248323,2.681925,21.2736,-45.27282,1001.51
0.914004803,0.04140722,-0.2806333,-0.07076861,-0.4996963,0.1456369,0.8219742,2.681925,21.2736,-45.27282,1001.51
0.916501999,0.1653184,-0.459223,-0.009546176,-0.4938148,0.1448568,0.826753,2.681925,21.2736,-45.27282,1001.51
0.918999672,0.1652665,-0.4590788,-0.1931438,-0.4939437,0.1521556,0.828134,2.681925,21.2736,-45.27282,1001.51
0.921496868,-0.1445959,-0.4589345,-0.2542833,-0.4944224,0.1516727,0.829093,2.681925,21.2736,-45.27282,1001.51
0.923994064,-0.2065126,-0.5183496,-0.3154036,-0.4938998,0.1497356,0.8286289,2.681925,21.2736,-45.27282,1001.508
0.926491261,-0.5162581,-0.6373054,-0.2541043,-0.4919223,0.1482959,0.8267273,2.681925,21.2736,-45.27282,1001.508
0.928988934,-0.5160959,-0.7562238,-0.3152247,-0.4996572,0.1437602,0.8267643,2.681925,21.2736,-45.27282,1001.508
0.931486130,-0.7018201,-0.6964269,-0.3763259,-0.493267,0.1414509,0.825344,2.681925,21.2736,-45.27282,1001.508
0.933983326,-0.5157133,-0.4579709,-0.4374079,-0.490858,0.1434768,0.8277164,2.688248,20.90472,-45.2664,1001.508
0.936480522,-0.5775134,-0.8151829,-0.31487,-0.4962728,0.1457878,0.8277031,2.688248,20.90472,-45.2664,1001.508
0.938978195,-0.3914457,-0.9340453,-0.4371715,-0.4948477,0.1482973,0.8315057,2.688248,20.90472,-45.2664,1001.508
0.941475391,-0.6391711,-0.9337519,-0.4982344,-0.4967796,0.1473427,0.8358126,2.688248,20.90472,-45.2664,1001.508
0.943972588,-0.7009324,-0.9334586,-0.4980778,-0.4973131,0.1497329,0.8338852,2.688248,20.90472,-45.2664,1001.508
0.946469784,-0.7626742,-1.111843,-0.4367212,-0.4983294,0.1515822,0.8286183,2.688248,20.90472,-45.2664,1001.508
0.948966503,-0.9483209,-1.051935,-0.4977842,-0.4987191,0.1462785,0.832,2.688248,20.90472,-45.2664,1001.508
0.951463699,-1.195871,-1.051604,-0.558828,-0.4987634,0.1486922,0.8310274,2.688248,20.90472,-45.2664,1001.508
0.953961372,-1.133534,-1.110833,-0.6810528,-0.4996558,0.1437795,0.8281971,2.688248,20.90472,-45.2664,1001.508
0.956458569,-1.133178,-1.050925,-0.5584385,-0.4987591,0.1481424,0.8262548,2.688248,20.90472,-45.2664,1001.508
0.958955765,-1.008897,-1.288832,-0.6194632,-0.4982007,0.1448912,0.8363085,2.688248,20.90472,-45.2664,1001.508
0.961452961,-0.8846561,-1.288427,-0.435668,-0.4972125,0.1438578,0.8301058,2.688248,20.90472,-45.2664,1001.508
0.963950634,-1.008302,-1.049785,-0.4967313,-0.4967858,0.1472525,0.8291259,2.688248,20.90472,-45.2664,1001.508
0.966447830,-0.9460236,-1.168574,-0.7413761,-0.4919691,0.151285,0.832438,2.688248,20.90472,-45.2664,1001.506
0.968945026,-1.007688,-1.108647,-0.679943,-0.4928355,0.1449165,0.829618,2.688248,20.90472,-45.2664,1001.506
0.971442223,-1.007372,-1.108299,-0.6185292,-0.4942659,0.1435515,0.8387042,2.688248,20.90472,-45.2664,1001.506
0.973939896,-1.192942,-0.9292729,-0.6795351,-0.4952637,0.1438354,0.8253281,2.688248,20.90472,-45.2664,1001.506
0.976437092,-1.192567,-0.9885403,-0.6793216,-0.4937878,0.1434138,0.8277186,2.688248,20.90472,-45.2664,1001.506
0.978934288,-1.13023,-1.047789,-0.7403084,-0.493312,0.1444658,0.8329651,2.688248,20.90472,-45.2664,1001.506
0.981431484,-1.129875,-0.9879006,-0.5564752,-0.4937734,0.1430123,0.8339311,2.688248,20.90472,-45.2664,1001.506
0.983929157,-1.253444,-0.8684716,-0.6175005,-0.4938537,0.1473477,0.8315119,3.423296,20.92057,-45.26793,1001.506
0.986426353,-0.881278,-0.9277581,-0.8009072,-0.4914818,0.1506685,0.8219334,3.423296,20.92057,-45.26793,1001.506
0.988923550,-1.004925,-0.9274666,-0.6170549,-0.4915004,0.1522339,0.8300427,3.423296,20.92057,-45.26793,1001.506
0.991420746,-1.128534,-0.8676159,-0.7392615,-0.4934145,0.1503152,0.834834,3.423296,20.92057,-45.26793,1001.506
0.993918419,-1.376028,-0.8077841,-0.8614297,-0.4963078,0.1483367,0.8367605,3.423296,20.92057,-45.26793,1001.506
0.996415615,-1.623444,-0.8670896,-0.9223592,-0.4932686,0.1420393,0.8329824,3.423296,20.92057,-45.26793,1001.506
0.998912334,-1.684896,-0.8668172,-0.9220695,-0.4912846,0.1400822,0.8286962,3.423296,20.92057,-45.26793,1001.506
1.001409531,-1.560442,-0.9261042,-0.98298,-0.4960491,0.133752,0.8349538,3.423296,20.92057,-45.26793,1001.506
1.003908634,-1.436028,-0.7471354,-0.9826712,-0.4936688,0.1371952,0.8344502,3.423296,20.92057,-45.26793,1001.506
1.006403923,-1.24969,-0.5682228,-0.859962,-0.4907954,0.1401055,0.8296511,3.423296,20.92057,-45.26793,1001.506
1.008901596,-1.063411,-0.4489256,-0.7372915,-0.4923303,0.14395,0.8291469,3.423296,20.92057,-45.26793,1001.506
1.011398792,-1.248964,-0.3892253,-0.7982601,-0.4951836,0.1401076,0.8368186,3.423296,20.92057,-45.26793,1001.506
1.013895988,-0.8767987,-0.4486623,-0.7980093,-0.5016676,0.1471668,0.8305624,3.423296,20.92057,-45.26793,1001.506
1.016393185,-0.9384854,-0.7463179,-0.6753582,-0.4987937,0.1506978,0.8357899,3.423296,20.92057,-45.26793,1001.506
1.018890858,-1.433887,-0.7460834,-0.7975464,-0.4982021,0.1448718,0.8348757,3.423296,20.92057,-45.26793,1001.506
1.021388054,-1.743247,-0.5076118,-0.8584961,-0.491783,0.1405376,0.8272602,3.423296,20.92057,-45.26793,1001.506
1.023885250,-1.494851,-0.5670117,-0.735826,-0.4985365,0.1354796,0.8230014,3.423296,20.92057,-45.26793,1001.506
1.026382446,-1.060647,-0.6263928,-0.6131944,-0.492779,0.1420691,0.8344149,3.423296,20.92057,-45.26793,1001.506
1.028880119,-0.8744276,-0.5070775,-0.4906014,-0.4914334,0.148927,0.8367534,3.423296,20.92057,-45.26793,1001.506
1.031377315,-1.122001,-0.5664774,-0.5516474,-0.4948371,0.148452,0.8429685,3.423296,20.92057,-45.26793,1001.506
1.033874511,-1.431459,-0.4471809,-0.7962749,-0.497245,0.1458312,0.83248,2.68209,21.2821,-44.82636,1001.506
1.036371708,-1.492972,-0.566159,-0.8572249,-0.4908732,0.1444796,0.8300976,2.68209,21.2821,-44.82636,1001.506
1.038869381,-1.244654,-0.5064218,-0.8569556,-0.4951724,0.1390469,0.8301389,2.68209,21.2821,-44.82636,1001.506
1.041366577,-1.244263,-0.565822,-0.7954862,-0.5021103,0.144762,0.8329682,2.68209,21.2821,-44.82636,1001.506
1.043863773,-1.305834,-0.506085,-0.8564365,-0.4947879,0.1448874,0.8305746,2.68209,21.2821,-44.82636,1001.506
1.046360969,-1.615234,-0.505926,-0.9785678,-0.4917719,0.1406987,0.8392007,2.68209,21.2821,-44.82636,1001.508
1.048858642,-1.614727,-0.5653263,-0.7334597,-0.4931245,0.1337377,0.8292202,2.68209,21.2821,-44.82636,1001.508
1.051355839,-1.366372,-0.4460301,-0.5496286,-0.4912443,0.1376106,0.8253701,2.68209,21.2821,-44.82636,1001.508
1.053853035,-0.8702455,-0.5650086,-0.7330565,-0.4976097,0.1384446,0.8253679,2.68209,21.2821,-44.82636,1001.508
1.056349754,-0.6221237,-0.6243904,-0.7328262,-0.4936832,0.1375967,0.8282377,2.68209,21.2821,-44.82636,1001.508
1.058846950,-1.055663,-0.5050756,-0.7937962,-0.4962949,0.1473017,0.8319913,2.68209,21.2821,-44.82636,1001.508
1.061344147,-1.117293,-0.6240355,-0.6711465,-0.4913479,0.1440547,0.8353552,2.68209,21.2821,-44.82636,1001.508
1.063841820,-1.240867,-0.5047209,-0.7321358,-0.4932886,0.1429712,0.8301098,2.68209,21.2821,-44.82636,1001.508
1.066339016,-1.116552,-0.4450031,-0.793106,-0.4957943,0.1468784,0.8358154,2.68209,21.2821,-44.82636,1001.508
1.068836212,-1.36405,-0.5639818,-0.7316566,-0.4947218,0.1415676,0.8363302,2.68209,21.2821,-44.82636,1001.508
1.071333408,-1.487546,-0.6829233,-0.6702266,-0.4926565,0.1352879,0.8354186,2.68209,21.2821,-44.82636,1001.508
1.073831081,-1.301192,-0.5040308,-0.6088158,-0.4970827,0.1365719,0.82968,2.68209,21.2821,-44.82636,1001.508
1.076328277,-1.052935,-0.7421097,-0.6086245,-0.4903254,0.1410737,0.8286886,2.68209,21.2821,-44.82636,1001.508
1.078825474,-0.8047559,-0.5631986,-0.7308337,-0.4923567,0.1453994,0.8286589,2.68209,21.2821,-44.82636,1001.508
1.081322670,-1.052351,-0.4439031,-0.6082037,-0.4908783,0.1450165,0.8339151,2.68209,21.2821,-44.82636,1001.508
1.083820343,-0.7422103,-0.503323,-0.5468125,-0.4903682,0.1441208,0.8386978,2.675602,21.64249,-45.27925,1001.508
1.086317539,-0.4941288,-0.5627241,-0.6690411,-0.490854,0.1435348,0.832015,2.675602,21.64249,-45.27925,1001.508
1.088814735,-0.8657461,-0.502988,-0.4852303,-0.4941702,0.1376055,0.8296709,2.675602,21.64249,-45.27925,1001.508
1.091311931,-1.361171,-0.6219486,-0.5462781,-0.4932265,0.1395935,0.8315669,2.675602,21.64249,-45.27925,1001.508
1.093809604,-1.422705,-0.8004311,-0.6073067,-0.4872869,0.1353776,0.8335041,2.675602,21.64249,-45.27925,1001.508
1.096306801,-0.9885237,-0.681061,-0.6683161,-0.4951533,0.138102,0.8320563,2.675602,21.64249,-45.27925,1001.508
1.098803997,-0.7403648,-0.3830506,-0.7905065,-0.4947011,0.1400344,0.8306092,2.675602,21.64249,-45.27925,1001.508
1.101301193,-0.8640564,-0.6211674,-0.6678578,-0.4904812,0.1498155,0.8291039,2.675602,21.64249,-45.27925,1001.508
1.103798866,-0.9257471,-0.740091,-0.667648,-0.4914026,0.1469278,0.8324687,2.675602,21.64249,-45.27925,1001.508
1.106295585,-0.9254562,-0.9185363,-0.7898386,-0.4971729,0.1419875,0.8353734,2.675602,21.64249,-45.27925,1001.508
1.108792782,-1.420862,-0.7395698,-0.6671901,-0.4918883,0.146956,0.8353348,2.675602,21.64249,-45.27925,1001.508
1.111289978,-1.730226,-0.7393375,-0.850581,-0.4877888,0.1357816,0.8282472,2.675602,21.64249,-45.27925,1001.508
1.113787174,-1.295948,-0.7986645,-0.911514,-0.4926467,0.1342077,0.8273059,2.675602,21.64249,-45.27925,1001.508
1.116284847,-0.8618063,-0.7984136,-0.7888272,-0.49272,0.1386463,0.8325287,2.675602,21.64249,-45.27925,1001.508
1.118782043,-0.1799526,-0.5599256,-0.7273793,-0.4982637,0.148256,0.8338963,2.675602,21.64249,-45.27925,1001.508
1.121279239,-0.5516685,-0.6193089,-0.7883509,-0.500728,0.1503187,0.84678,2.675602,21.64249,-45.27925,1001.508
1.123776436,-1.666813,-0.7977923,-0.8493035,-0.4897314,0.1358942,0.8397114,2.675602,21.64249,-45.27925,1001.508
1.126274109,-1.852175,-0.857101,-0.9102368,-0.4916826,0.1352702,0.8325521,2.675602,21.64249,-45.27925,1001.507
1.128771305,-1.046086,-0.6781538,-0.7875505,-0.4995683,0.1383253,0.819638,2.675602,21.64249,-45.27925,1001.507
1.131268501,-0.5500611,-0.4992629,-0.7873031,-0.5000651,0.1394142,0.8291838,2.675602,21.64249,-45.27925,1001.507
1.133765697,-0.9836228,-0.6182246,-0.8482559,-0.4952157,0.1420875,0.8396705,2.675602,21.64249,-45.27925,1001.507
1.136262893,-1.293124,-0.6775897,-0.8479894,-0.4965548,0.1347121,0.8349472,2.675602,21.64249,-45.27925,1001.507
1.138760567,-0.9829076,-0.6178175,-0.7865229,-0.4965162,0.1322147,0.8297107,2.675602,21.64249,-45.27925,1001.507
1.141257763,-0.8586747,-0.6771827,-0.7862757,-0.4946367,0.1366889,0.8344544,2.675602,21.64249,-45.27925,1001.507
1.143754959,-0.6105566,-0.3791735,-0.6636283,-0.490787,0.140228,0.8387258,2.675602,21.64249,-45.27925,1001.507
1.146252155,-0.1766302,-0.3790544,-0.5410194,-0.4937039,0.1391299,0.8339587,2.675602,21.64249,-45.27925,1001.507
1.148749828,0.07127368,-0.5576132,-0.5408494,-0.5005298,0.1385233,0.8358778,2.675602,21.64249,-45.27925,1001.507
1.151247024,-0.7342559,-0.6169973,-0.6018798,-0.4967622,0.1463721,0.8358195,2.675602,21.64249,-45.27925,1001.507
1.153744221,-0.9818735,-0.4381256,-0.5404905,-0.4957474,0.1445035,0.8396536,2.675602,21.64249,-45.27925,1001.507
1.156241417,-0.981565,-0.4975473,-0.7239213,-0.4931428,0.1346954,0.8282581,2.675602,21.64249,-45.27925,1001.507
1.158739090,-0.7334083,-0.4378316,-0.5400932,-0.496143,0.1385019,0.8272773,2.675602,21.64249,-45.27925,1001.507
1.161236286,-0.3614054,-0.3781348,-0.5399235,-0.4912325,0.1371704,0.828717,2.675602,21.64249,-45.27925,1001.507
1.163733005,-0.3612919,-0.4971346,-0.233753,-0.4946732,0.1386043,0.8325301,2.675602,21.64249,-45.27925,1001.507
1.166230202,-0.4851025,-0.3183005,-0.2336795,-0.4921399,0.1338747,0.8378167,2.675602,21.64249,-45.27925,1001.507
1.168727398,-0.5469122,-0.4968784,-0.2948063,-0.4888075,0.1382064,0.8296635,2.675602,21.64249,-45.27925,1001.507
1.171225071,-0.4228162,-0.3776037,-0.3559139,-0.4932152,0.1391469,0.834436,2.675602,21.64249,-45.27925,1001.507
1.173722267,-0.3607213,-0.4370444,-0.4170023,-0.4922063,0.1378022,0.8411323,2.675602,21.64249,-45.27925,1001.507
1.176219463,-0.2366838,-0.1986699,-0.3556711,-0.4922408,0.1391356,0.8320472,2.675602,21.64249,-45.27925,1001.507
1.178716659,-0.2366095,-0.1390482,-0.2943591,-0.4975497,0.1356488,0.8339858,2.675602,21.64249,-45.27925,1001.507
1.181214332,-0.3604593,-0.3772417,-0.416667,-0.4941987,0.1396369,0.8363437,2.675602,21.64249,-45.27925,1001.507
1.183711529,-0.2364219,-0.2580046,-0.2329355,-0.4956819,0.1405631,0.8353827,2.68209,21.2821,-44.82636,1001.507
1.186208725,-0.1743855,-0.2579235,-0.2328624,-0.4932624,0.1421295,0.839669,2.68209,21.2821,-44.82636,1001.507
1.188705921,-0.2982549,-0.3769611,-0.2939894,-0.4937716,0.1430381,0.8358416,2.68209,21.2821,-44.82636,1001.507
1.191203594,-0.4220854,-0.2577241,-0.1102965,-0.4966476,0.140089,0.8377749,2.68209,21.2821,-44.82636,1001.507
1.193700790,-0.2360666,-0.2576431,-0.2326622,-0.4961876,0.1415232,0.8353761,2.68209,21.2821,-44.82636,1001.507
1.196197986,-0.1740303,-0.2575622,-0.2937893,-0.4956454,0.1386477,0.837307,2.68209,21.2821,-44.82636,1001.507
1.198695183,-0.2359377,-0.197922,-0.4772976,-0.4956115,0.1366936,0.8363655,2.68209,21.2821,-44.82636,1001.507
1.201192856,-0.4217499,-0.2574191,-0.1099465,-0.4922811,0.1416072,0.8353733,2.68209,21.2821,-44.82636,1001.507
1.203691959,-0.2357311,-0.2573382,-0.1099119,-0.493713,0.1396088,0.8334777,2.68209,21.2821,-44.82636,1001.507
1.206187248,-0.235657,-0.2572574,-0.2322778,-0.4917968,0.1415597,0.8310742,2.68209,21.2821,-44.82636,1001.509
1.208684444,-0.1736209,-0.1976172,-0.3546052,-0.4913183,0.1426504,0.8391865,2.68209,21.2821,-44.82636,1001.509
1.211181640,-0.1116043,-0.3166738,-0.3544938,-0.4917066,0.1361442,0.8253809,2.68209,21.2821,-44.82636,1001.509
1.213679313,-0.04960712,-0.1974557,-0.2319821,-0.4937613,0.1419644,0.8282066,2.68209,21.2821,-44.82636,1001.509
1.216176033,-0.1115536,-0.3165123,-0.1095088,-0.4952695,0.1449735,0.8377393,2.68209,21.2821,-44.82636,1001.509
1.218673229,-0.1734807,-0.3759721,-0.1706746,-0.4928128,0.1440232,0.8353564,2.68209,21.2821,-44.82636,1001.509
1.221170425,-0.2973503,-0.2567354,-0.2930214,-0.4893299,0.1407577,0.8396765,2.68209,21.2821,-44.82636,1001.509
1.223667621,-0.5451052,-0.07797683,-0.2317291,-0.4903091,0.140698,0.8368115,2.68209,21.2821,-44.82636,1001.509
1.226165294,-0.6068961,-0.1970709,-0.2316563,-0.4941501,0.1366736,0.8325436,2.68209,21.2821,-44.82636,1001.509
1.228662491,-0.4827813,-0.3756869,-0.3539839,-0.4946371,0.1366824,0.8339767,2.68209,21.2821,-44.82636,1001.509
1.231159687,-0.2347813,-0.3755689,-0.4150729,-0.4932114,0.1385907,0.8291857,2.68209,21.2821,-44.82636,1001.509
1.233656883,0.01314086,-0.2563323,-0.3537423,-0.4849508,0.1412344,0.832028,2.320724,20.89679,-45.26564,1001.509
1.236154556,0.2609851,-0.2562518,-0.598432,-0.4878471,0.139825,0.84016,2.320724,20.89679,-45.26564,1001.509
1.238651752,-0.482642,-0.2561713,-0.7206444,-0.493192,0.13826,0.840652,2.320724,20.89679,-45.26564,1001.509
1.241148948,-0.6683766,-0.0774129,-0.5368174,-0.4942105,0.1400771,0.832997,2.320724,20.89679,-45.26564,1001.509
1.243646145,-0.6062046,-0.07738858,-0.5366488,-0.492762,0.1410921,0.8339442,2.320724,20.89679,-45.26564,1001.509
1.246143818,-0.2962037,-0.3156015,-0.5364801,-0.4869397,0.1431207,0.8310603,2.320724,20.89679,-45.26564,1001.509
1.248641014,-0.1721864,-0.1963837,-0.5363116,-0.4888487,0.1406651,0.8320343,2.320724,20.89679,-45.26564,1001.509
1.251138210,-0.04820815,0.2801524,-0.4749429,-0.495284,0.145375,0.8315268,2.320724,20.89679,-45.26564,1001.509
1.253635406,-0.4819276,-0.01773214,-0.7807947,-0.4958377,0.1493049,0.8357981,2.320724,20.89679,-45.26564,1001.509
1.256133079,-1.039435,-0.07728587,-0.7193492,-0.4909012,0.1465175,0.837248,2.320724,20.89679,-45.26564,1001.509
1.258630276,-0.9151843,-0.01770229,-0.7803234,-0.4877044,0.1315041,0.8349649,2.320724,20.89679,-45.26564,1001.509
1.261127472,-0.7290105,0.04186257,-0.5352775,-0.4950745,0.1331331,0.8234937,2.320724,20.89679,-45.26564,1001.509
1.263624668,-0.6048573,0.04184942,-0.4739091,-0.4956725,0.1394766,0.8267925,2.320724,20.89679,-45.26564,1001.509
1.266122341,-0.2948569,0.2800735,-0.6573609,-0.4937469,0.1415628,0.8344191,2.320724,20.89679,-45.26564,1001.509
1.268619537,-0.17084,0.1608669,-0.7183545,-0.4942403,0.1420892,0.8382369,2.320724,20.89679,-45.26564,1001.509
1.271116257,-0.4186347,0.04169775,-0.6569287,-0.4995801,0.1399873,0.8349114,2.320724,20.89679,-45.26564,1001.509
1.273613453,-0.5424274,-0.07743394,-0.595522,-0.4937262,0.1400296,0.828698,2.320724,20.89679,-45.26564,1001.509
1.276110649,-0.542257,-0.1369689,-0.4729346,-0.4957246,0.1423883,0.8267717,2.320724,20.89679,-45.26564,1001.509
1.278607845,-0.2942383,-0.07736659,-0.5339862,-0.4960952,0.1361398,0.8320708,2.320724,20.89679,-45.26564,1001.509
1.281105518,-0.1082596,0.2800135,-0.2890176,-0.4975383,0.1352022,0.8368549,2.320724,20.89679,-45.26564,1001.509
1.283602714,-0.1082256,0.2799256,-0.4113272,-0.5004238,0.1327255,0.8378297,2.68209,21.2821,-44.82636,1001.509
1.286099911,-0.2321157,0.2202783,-0.3499978,-0.5001054,0.1418858,0.8325099,2.68209,21.2821,-44.82636,1001.509
1.288597107,-0.4798912,-0.0180281,-0.3498878,-0.4946672,0.1380803,0.8296678,2.68209,21.2821,-44.82636,1001.508
1.291094780,-0.4797404,0.04153686,-0.3497779,-0.4946737,0.1385978,0.8320525,2.68209,21.2821,-44.82636,1001.508
1.293591976,-0.2937034,-0.01803549,-0.2884679,-0.4984782,0.132658,0.8297088,2.68209,21.2821,-44.82636,1001.508
1.296089172,-0.04576279,0.1606481,-0.227177,-0.4980662,0.137062,0.8315877,2.68209,21.2821,-44.82636,1001.508
1.298586368,0.07817577,0.1605976,-0.1047053,-0.4976022,0.1385541,0.8334875,2.68209,21.2821,-44.82636,1001.508
1.301084041,0.01618912,-0.1372494,-0.1046724,-0.4940863,0.1333216,0.8359111,2.68209,21.2821,-44.82636,1001.508
1.303581238,0.07814611,0.04147168,-0.2270399,-0.4966055,0.1376432,0.8363593,2.68209,21.2821,-44.82636,1001.508
1.306078434,0.01615948,0.2201366,-0.1045682,-0.4970956,0.1376069,0.8344492,2.68209,21.2821,-44.82636,1001.508
1.308575630,-0.04580769,0.1009488,-0.1657355,-0.4974346,0.1293722,0.8364189,2.68209,21.2821,-44.82636,1001.508
1.311073303,-0.1077554,0.1604764,-0.04328303,-0.4926587,0.1352557,0.8330305,2.68209,21.2821,-44.82636,1001.508
1.313570499,0.07816473,-0.07781124,-0.1044696,-0.4932365,0.1400595,0.8301306,2.68209,21.2821,-44.82636,1001.508
1.316067695,0.3259885,0.04133181,0.01796359,-0.4937213,0.1401005,0.8339518,2.68209,21.2821,-44.82636,1001.508
1.318564892,0.1399999,0.1604374,-0.1044425,-0.4892687,0.137367,0.8401783,2.68209,21.2821,-44.82636,1001.508
1.321062565,-0.2318167,0.04126842,-0.1656099,-0.498107,0.1395271,0.8344361,2.68209,21.2821,-44.82636,1001.508
1.323558807,-0.1697817,0.1008148,0.01804278,-0.4932613,0.1415347,0.831553,2.68209,21.2821,-44.82636,1001.508
1.326056480,0.140082,-0.07789482,0.07923731,-0.496208,0.1424487,0.8320259,2.68209,21.2821,-44.82636,1001.508
1.328553676,0.140038,-0.07787035,0.01801222,-0.4961368,0.1385921,0.833964,2.68209,21.2821,-44.82636,1001.51
1.331050873,0.01606986,-0.1969645,-0.1043938,-0.4936999,0.1391879,0.8382573,2.68209,21.2821,-44.82636,1001.51
1.333548069,0.139989,-0.1373433,-0.104361,-0.4903396,0.1420894,0.832025,3.043126,21.65041,-45.28001,1001.51
1.336045742,-0.1079033,-0.07774086,-0.1655285,-0.4912935,0.1411752,0.837764,3.043126,21.65041,-45.28001,1001.51
1.338542938,-0.3557178,0.04140216,-0.1654765,-0.4903544,0.1430987,0.8348837,3.043126,21.65041,-45.28001,1001.51
1.341040134,-0.04579561,-0.07772945,0.01817613,-0.4892662,0.1367915,0.8334951,3.043126,21.65041,-45.28001,1001.51
1.343537330,-0.1077433,-0.07770503,0.01817042,-0.4891805,0.1325334,0.8416458,3.043126,21.65041,-45.28001,1001.51
1.346035004,-0.04574737,0.2796752,-0.04303548,-0.485775,0.1330342,0.8373412,3.043126,21.65041,-45.28001,1001.51
1.348532200,0.2021154,0.220028,-0.04302197,-0.4882439,0.1344182,0.8358998,3.043126,21.65041,-45.28001,1001.51
1.351029396,0.2020519,0.3986368,0.07939196,-0.494127,0.1357868,0.8387595,3.043126,21.65041,-45.28001,1001.51
1.353526592,0.3259126,0.5771895,0.07936701,-0.4952201,0.1420231,0.8348943,3.043126,21.65041,-45.28001,1001.51
1.356024265,0.3258102,0.4578896,0.07934208,-0.4933194,0.1449704,0.8343945,3.043126,21.65041,-45.28001,1001.51
1.358521461,0.2637457,0.2790678,0.01811695,-0.4941753,0.1381424,0.8334884,3.043126,21.65041,-45.28001,1001.51
1.361018658,0.2636629,0.3980987,0.07931146,-0.4941631,0.1377086,0.8373128,3.043126,21.65041,-45.28001,1001.51
1.363515854,0.201618,0.5766516,0.07928655,-0.4976507,0.1415175,0.8372877,3.043126,21.65041,-45.28001,1001.51
1.366013527,0.1395925,0.5169111,0.1404618,-0.4970044,0.1328184,0.83926,3.043126,21.65041,-45.28001,1001.51
1.368510723,0.01562449,0.3976301,0.07921751,-0.4935946,0.1327695,0.8301828,3.043126,21.65041,-45.28001,1001.512
1.371007919,0.07758167,0.3975052,0.07919262,-0.4966347,0.139054,0.8330057,3.043126,21.65041,-45.28001,1001.512
1.373505115,0.2014815,0.337821,0.140368,-0.4932508,0.1410752,0.8334669,3.043126,21.65041,-45.28001,1001.512
1.376002788,0.2014182,0.2781556,0.01792345,-0.4957131,0.1425558,0.8391898,3.043126,21.65041,-45.28001,1001.512
1.378501415,0.3252791,0.5163054,0.2015184,-0.4961689,0.1405719,0.8368158,3.043126,21.65041,-45.28001,1001.512
1.380996704,0.01536644,0.277906,0.1402549,-0.4921774,0.1357772,0.8349371,3.043126,21.65041,-45.28001,1001.512
1.383493900,0.01536161,0.2778187,0.2014111,-0.4980805,0.1380777,0.8349241,3.423461,20.92906,-44.82146,1001.512
1.385991096,0.01535679,0.2181721,0.3237482,-0.4975214,0.1342251,0.8363842,3.423461,20.92906,-44.82146,1001.512
1.388488293,0.1392761,0.3372222,0.2012461,-0.4961116,0.1371233,0.8330191,3.423461,20.92906,-44.82146,1001.512
1.390985966,0.3870808,0.2775569,0.262383,-0.4999578,0.1336358,0.8325686,3.423461,20.92906,-44.82146,1001.512
1.393483162,0.2010729,0.1583511,0.384701,-0.4990593,0.1380244,0.8325368,3.423461,20.92906,-44.82146,1001.512
1.395980358,0.5727823,0.09874207,0.32338,-0.4946202,0.1357054,0.833506,3.423461,20.92906,-44.82146,1001.512
1.398477554,0.8204507,0.277389,0.3844786,-0.499074,0.1390337,0.8353956,3.423461,20.92906,-44.82146,1001.512
1.400975227,0.5723445,0.3964204,0.2619574,-0.497991,0.1332634,0.8378245,3.423461,20.92906,-44.82146,1001.512
1.403472423,0.3862785,0.3962958,0.3842755,-0.4956623,0.1396247,0.8377777,3.423461,20.92906,-44.82146,1001.512
1.405969620,0.4481192,0.3961714,0.445355,-0.4980763,0.137528,0.8301514,3.423461,20.92906,-44.82146,1001.512
1.408466816,0.5719026,0.3364876,0.4452151,-0.499035,0.1365428,0.8306367,3.423461,20.92906,-44.82146,1001.512
1.410964489,0.8195713,0.3363819,0.5062754,-0.4975505,0.1356359,0.8330306,3.423461,20.92906,-44.82146,1001.512
1.413461685,1.0052,0.3958355,0.5673165,-0.4975766,0.1370918,0.8330202,3.423461,20.92906,-44.82146,1001.512
1.415958881,0.8189981,0.2170333,0.5671383,-0.4942287,0.1410348,0.8320348,3.423461,20.92906,-44.82146,1001.512
1.418456077,0.6328545,0.3360837,0.6281604,-0.4971039,0.1380987,0.8349234,3.423461,20.92906,-44.82146,1001.512
1.420953750,0.7565799,0.3359781,0.5667628,-0.4936661,0.1372338,0.8373159,3.423461,20.92906,-44.82146,1001.512
1.423450947,1.004191,0.3954318,0.4441844,-0.4931704,0.1367397,0.8358862,3.423461,20.92906,-44.82146,1001.512
1.425948143,0.7560267,0.276189,0.505245,-0.4916657,0.1342932,0.8320814,3.423461,20.92906,-44.82146,1001.512
1.428445339,0.9416755,0.3952208,0.6886868,-0.49315,0.1358142,0.8392364,3.423461,20.92906,-44.82146,1001.512
1.430943012,1.065304,0.3355374,0.4436697,-0.4907901,0.1401829,0.8353825,3.423461,20.92906,-44.82146,1001.512
1.433440208,0.7551587,0.03763547,0.6271309,-0.5010729,0.1413859,0.8329917,3.049449,21.28153,-45.27359,1001.512
1.435936928,0.9408077,0.2758608,0.6881341,-0.4952014,0.1410718,0.836334,3.049449,21.28153,-45.27359,1001.512
1.438434124,1.064436,0.3353335,0.6267177,-0.4951876,0.1400497,0.8325201,3.049449,21.28153,-45.27359,1001.512
1.440931320,1.188026,0.2161095,0.5653206,-0.4956374,0.1375418,0.8272839,3.049449,21.28153,-45.27359,1001.512
1.443428516,1.187653,0.2160416,0.6263433,-0.4980858,0.1380004,0.8291927,3.049449,21.28153,-45.27359,1001.512
1.445926189,1.18728,0.3350924,0.6873467,-0.4951602,0.1386131,0.8339633,3.049449,21.28153,-45.27359,1001.512
1.448423385,1.00102,0.3349871,0.748331,-0.4942526,0.1425229,0.8344125,3.049449,21.28153,-45.27359,1001.51
1.450920582,0.8767818,0.3348819,0.6256954,-0.4975657,0.1366387,0.8354118,3.049449,21.28153,-45.27359,1001.51
1.453417778,0.8145443,0.09653945,0.7478993,-0.4927013,0.137695,0.8339684,3.049449,21.28153,-45.27359,1001.51
1.455915451,1.000175,0.09650913,0.6864641,-0.4932216,0.1396644,0.8368206,3.049449,21.28153,-45.27359,1001.51
1.458412647,0.9378984,0.0964788,0.8086488,-0.4971343,0.1394901,0.8301369,3.049449,21.28153,-45.27359,1001.51
1.460909843,0.8756416,0.2751264,0.8083948,-0.4951181,0.1361673,0.8325477,3.049449,21.28153,-45.27359,1001.51
1.463407040,0.9992907,0.1559214,0.8081408,-0.4897563,0.1367552,0.831585,3.049449,21.28153,-45.27359,1001.51
1.465904713,1.122901,0.09631307,0.7466868,-0.4887777,0.1374162,0.8430437,3.049449,21.28153,-45.27359,1001.51
1.468401909,0.998624,0.1558421,0.6240517,-0.4918048,0.1426656,0.8410974,3.049449,21.28153,-45.27359,1001.51
1.470899105,0.9363482,0.09623386,0.5626555,-0.4903535,0.1431116,0.835839,3.049449,21.28153,-45.27359,1001.51
1.473396301,0.9980161,0.2748815,0.623679,-0.4950843,0.1342132,0.8316063,3.049449,21.28153,-45.27359,1001.51
1.475893974,0.9977026,0.1556766,0.7458834,-0.4966082,0.1376046,0.8334936,3.049449,21.28153,-45.27359,1001.51
1.478391170,0.8734649,0.4534242,0.6844489,-0.4960878,0.1356352,0.8306414,3.049449,21.28153,-45.27359,1001.51
1.480888367,0.9971147,0.2746038,0.8678344,-0.4935924,0.1328017,0.8325709,3.049449,21.28153,-45.27359,1001.51
1.483385563,1.058764,0.2149583,0.8675618,-0.4946265,0.1356152,0.8268194,2.301755,22.00345,-45.28491,1001.51
1.485883236,0.9964688,0.1553314,0.8060891,-0.4908119,0.141089,0.8305994,2.301755,22.00345,-45.28491,1001.51
1.488380432,1.058118,0.3339605,0.6834354,-0.4917489,0.1391977,0.8358678,2.301755,22.00345,-45.28491,1001.513
1.490877151,1.429558,0.2742963,0.7444209,-0.4927216,0.1392347,0.840167,2.301755,22.00345,-45.28491,1001.513
1.493374348,1.243223,0.2146508,0.7441871,-0.4918092,0.1426012,0.8363211,2.301755,22.00345,-45.28491,1001.513
1.495871544,1.056946,0.3932613,0.6827531,-0.4917823,0.1411582,0.8372868,2.301755,22.00345,-45.28491,1001.513
1.498368740,0.9946517,0.3335785,0.7437388,-0.4913354,0.1430133,0.8301083,2.301755,22.00345,-45.28491,1001.513
1.500866413,0.9323771,0.3930329,0.6211047,-0.4922012,0.1372653,0.8373148,2.301755,22.00345,-45.28491,1001.513
1.503363609,0.9940463,0.2737909,0.4985092,-0.4966273,0.1385494,0.8315763,2.301755,22.00345,-45.28491,1001.513
1.505860805,1.17962,0.3928235,0.7431534,-0.4923033,0.1425069,0.8301126,2.301755,22.00345,-45.28491,1001.513
1.508358002,1.055326,0.4522594,0.8041201,-0.4917685,0.1401361,0.8334728,2.301755,22.00345,-45.28491,1001.513
1.510855675,0.8691077,0.5116765,0.8038675,-0.495714,0.142543,0.8382345,2.301755,22.00345,-45.28491,1001.513
1.513352871,0.9307967,0.5710751,0.7424148,-0.4952212,0.1426179,0.8430104,2.301755,22.00345,-45.28491,1001.513
1.515850067,0.8685422,0.630455,0.5585809,-0.4942083,0.1401093,0.8353851,2.301755,22.00345,-45.28491,1001.513
1.518347263,0.9302315,0.4515791,0.6196057,-0.4942608,0.1430147,0.8348867,2.301755,22.00345,-45.28491,1001.513
1.520844936,0.8679771,0.3323186,0.8030116,-0.4981114,0.1394627,0.8296599,2.301755,22.00345,-45.28491,1001.513
1.523342132,0.8057423,0.5108921,0.8639595,-0.4946294,0.1361842,0.833025,2.301755,22.00345,-45.28491,1001.513
1.525839329,0.9294134,0.6894095,0.8636881,-0.4956441,0.138667,0.8387398,2.301755,22.00345,-45.28491,1001.513
1.528336525,1.053046,0.6296336,0.8022165,-0.4986166,0.1404292,0.8301311,2.301755,22.00345,-45.28491,1001.515
1.530834198,1.052715,0.6889951,0.8631647,-0.4927529,0.1406132,0.8344253,2.301755,22.00345,-45.28491,1001.515
1.533331394,1.052384,0.6887786,0.8016934,-0.4932143,0.1391598,0.8353913,2.308243,21.64306,-44.83202,1001.515
1.535828590,0.8661671,0.8672402,0.6178409,-0.4917333,0.1382013,0.8339642,2.308243,21.64306,-44.83202,1001.515
1.538325786,0.865895,0.8074085,0.8012474,-0.4941944,0.1390872,0.831571,2.308243,21.64306,-44.83202,1001.515
1.540823460,1.051509,0.8667141,0.8009957,-0.4942234,0.1411121,0.8377662,2.308243,21.64306,-44.83202,1001.515
1.543320179,0.9892169,0.509086,0.8007441,-0.4937981,0.1444875,0.8353536,2.308243,21.64306,-44.83202,1001.515
1.545817375,0.5551714,0.5684854,0.6780921,-0.4928516,0.1459064,0.8310439,2.308243,21.64306,-44.83202,1001.515
1.548314571,0.8648075,0.7469847,0.677879,-0.4874167,0.1426635,0.8339298,2.308243,21.64306,-44.83202,1001.515
1.550811767,1.112384,0.8063093,0.8000665,-0.4951141,0.1362253,0.8368462,2.308243,21.64306,-44.83202,1001.515
1.553308964,1.112035,1.044293,1.044616,-0.4962203,0.1428824,0.8282015,2.308243,21.64306,-44.83202,1001.515
1.555806637,1.111685,0.8057279,0.7994869,-0.4957059,0.1414371,0.8282115,2.308243,21.64306,-44.83202,1001.515
1.558303833,1.173298,0.8650341,0.860436,-0.4951671,0.1391242,0.8358703,2.308243,21.64306,-44.83202,1001.515
1.560801029,1.17293,0.7456437,0.8601657,-0.4951894,0.1400239,0.8306096,2.308243,21.64306,-44.83202,1001.515
1.563298225,1.358447,0.7454095,0.9210956,-0.4912212,0.1367237,0.8315862,2.308243,21.64306,-44.83202,1001.515
1.565795898,1.110172,0.685616,0.9820065,-0.4918224,0.1430221,0.8315415,2.308243,21.64306,-44.83202,1001.515
1.568293095,0.9858993,0.8640785,0.9204977,-0.4977037,0.1444163,0.8363116,2.308243,21.64306,-44.83202,1001.514
1.570790291,0.9236275,0.9233663,0.7978082,-0.4982833,0.1491944,0.8315013,2.308243,21.64306,-44.83202,1001.514
1.573287487,0.6135268,0.7443984,0.7975575,-0.4913666,0.145006,0.8339154,2.308243,21.64306,-44.83202,1001.514
1.575785160,0.1795994,0.6250459,0.9197074,-0.4932049,0.1380732,0.8268011,2.308243,21.64306,-44.83202,1001.514
1.578282356,0.5513155,0.8035275,0.9194184,-0.490269,0.1376123,0.8239366,2.308243,21.64306,-44.83202,1001.514
1.580779552,1.232725,0.8628343,0.9191296,-0.4951626,0.1379667,0.8220263,2.308243,21.64306,-44.83202,1001.514
1.583276749,1.356262,0.803004,0.7964405,-0.492414,0.148848,0.8324556,3.055937,20.92114,-44.8207,1001.514
1.585774422,1.107988,0.6240737,0.9797909,-0.4914908,0.1517615,0.8310013,3.055937,20.92114,-44.8207,1001.514
1.588271618,0.9837156,0.683437,0.7958825,-0.4968435,0.1506947,0.8324451,3.055937,20.92114,-44.8207,1001.514
1.590768814,0.8594823,0.6832223,0.7956324,-0.4982539,0.1471759,0.8257837,3.055937,20.92114,-44.8207,1001.514
1.593266010,0.8592123,0.6234484,0.7341822,-0.4938048,0.1443909,0.8281893,3.055937,20.92114,-44.8207,1001.514
1.595763683,0.8589424,0.6828118,0.6727514,-0.4907516,0.1376855,0.830146,3.055937,20.92114,-44.8207,1001.514
1.598260879,0.9825968,0.5634787,0.6113399,-0.4947366,0.1419627,0.8296402,3.055937,20.92114,-44.8207,1001.514
1.600757599,1.106212,0.5633017,0.672348,-0.4972695,0.1466987,0.8248312,3.055937,20.92114,-44.8207,1001.514
1.603254795,1.043903,0.3248875,0.733337,-0.4987113,0.1457804,0.8310482,3.055937,20.92114,-44.8207,1001.514
1.605751991,0.7337642,0.2652261,0.6107062,-0.4978124,0.1501755,0.831494,3.055937,20.92114,-44.8207,1001.514
1.608249664,0.299799,0.1460242,0.6105143,-0.4967671,0.1463012,0.8305657,3.055937,20.92114,-44.8207,1001.512
1.610746860,-0.1959919,-0.0922589,0.5491223,-0.4903218,0.1411253,0.8325095,3.055937,20.92114,-44.8207,1001.512
1.613244057,0.4856527,0.1460073,0.61015,-0.4922495,0.1396209,0.8320438,3.055937,20.92114,-44.8207,1001.512
1.615742683,0.9811969,0.1459614,0.6099584,-0.4975906,0.1374998,0.8272853,3.055937,20.92114,-44.8207,1001.512
1.618238926,1.104813,0.2650342,0.6709669,-0.496245,0.1443577,0.8296239,3.055937,20.92114,-44.8207,1001.512
1.620736122,0.9805415,0.086273,0.6095559,-0.4928371,0.1455049,0.8372564,3.055937,20.92114,-44.8207,1001.512
1.623233318,0.7943472,0.1458052,0.6093644,-0.4928792,0.1479507,0.8386719,3.055937,20.92114,-44.8207,1001.512
1.625730514,0.6701735,0.08620009,0.609173,-0.4981791,0.1433708,0.8315428,3.055937,20.92114,-44.8207,1001.512
1.628227711,0.6080009,0.02661371,0.425381,-0.4967281,0.1438103,0.8258068,3.055937,20.92114,-44.8207,1001.512
1.630725384,0.4838856,0.08616465,0.4864476,-0.4952711,0.14434,0.8267576,3.055937,20.92114,-44.8207,1001.512
1.633222580,0.731582,0.02657828,0.6086951,-0.4883837,0.1421701,0.8348892,2.314566,21.27418,-44.8256,1001.512
1.635719776,0.9792005,0.02656993,0.4861035,-0.4923984,0.1478517,0.830552,2.314566,21.27418,-44.8256,1001.512
1.638216972,0.9169309,0.2052395,0.4859508,-0.4947774,0.1444278,0.8324886,2.314566,21.27418,-44.8256,1001.512
1.640714645,0.8546807,0.205175,0.5469984,-0.491377,0.1454655,0.8320015,2.314566,21.27418,-44.8256,1001.512
1.643211842,0.7924501,0.08599195,0.6080267,-0.4972577,0.1462585,0.828178,2.314566,21.27418,-44.8256,1001.512
1.645709038,0.6682769,0.1455242,0.4854353,-0.4982842,0.1491815,0.830546,2.314566,21.27418,-44.8256,1001.512
1.648206234,0.4821807,0.1454785,0.3628824,-0.4982659,0.1482238,0.8315082,2.314566,21.27418,-44.8256,1001.512
1.650703907,0.7918397,0.2049921,0.240368,-0.4967333,0.1443471,0.8296243,2.314566,21.27418,-44.8256,1001.514
1.653201103,0.9155151,0.08580911,0.1790923,-0.4967684,0.1462819,0.8291329,2.314566,21.27418,-44.8256,1001.514
1.655697822,0.5434549,0.08578216,0.3626366,-0.4959069,0.1525795,0.8266991,2.314566,21.27418,-44.8256,1001.514
1.658195019,0.6052463,0.3239924,0.2401223,-0.4938446,0.1468689,0.831993,2.314566,21.27418,-44.8256,1001.514
1.660692215,0.7289804,0.08565342,0.4848476,-0.496228,0.1433806,0.8291532,2.314566,21.27418,-44.8256,1001.514
1.663189888,0.6048272,0.2643044,0.4234951,-0.5001993,0.1466357,0.8248334,2.314566,21.27418,-44.8256,1001.514
1.665687084,0.542675,0.08554348,0.1785613,-0.5002474,0.1496055,0.8291112,2.314566,21.27418,-44.8256,1001.514
1.668184280,0.4805424,0.08551661,0.1785052,-0.4958976,0.1527148,0.836729,2.314566,21.27418,-44.8256,1001.514
1.670681477,0.4184294,0.08548974,0.2396493,-0.4972828,0.1477273,0.8291228,2.314566,21.27418,-44.8256,1001.514
1.673179150,0.3563358,-0.2123336,0.1783738,-0.4938239,0.1453357,0.826272,2.314566,21.27418,-44.8256,1001.514
1.675676346,0.2322997,-0.2122669,0.239518,-0.4942724,0.1428471,0.8224686,2.314566,21.27418,-44.8256,1001.514
1.678173542,0.2322267,-0.03352232,0.05584212,-0.4923134,0.1429729,0.8286762,2.314566,21.27418,-44.8256,1001.514
1.680670738,0.41804,-0.09307109,0.178225,-0.4958235,0.1482892,0.8324617,2.314566,21.27418,-44.8256,1001.514
1.683168411,0.3559466,-0.1526012,0.05576858,-0.495823,0.1482957,0.8329393,2.694571,20.53583,-45.25998,1001.514
1.685665607,0.479759,-0.1525532,0.1169513,-0.4957376,0.1434233,0.831541,2.694571,20.53583,-45.25998,1001.514
1.688162804,0.5415704,-0.09294599,0.1169145,-0.4943278,0.1463215,0.8281758,2.694571,20.53583,-45.25998,1001.514
1.690660000,0.417476,-0.2715947,-0.005522616,-0.4992069,0.1462745,0.832478,2.694571,20.53583,-45.25998,1001.514
1.693157673,0.1694965,-0.2119501,-0.06672108,-0.4962792,0.1463053,0.8300878,2.694571,20.53583,-45.25998,1001.514
1.695654869,0.1694433,-0.09276488,-0.06670012,-0.4963149,0.1482336,0.8291187,2.694571,20.53583,-45.25998,1001.514
1.698152065,0.2313521,-0.09273574,0.1169214,-0.4934019,0.1492737,0.8295872,2.694571,20.53583,-45.25998,1001.514
1.700649261,0.04539316,-0.0927066,0.0556845,-0.4918406,0.1439798,0.8305793,2.694571,20.53583,-45.25998,1001.514
1.703146458,0.2312652,-0.1522368,-0.0667334,-0.4923739,0.1469842,0.8382009,2.694571,20.53583,-45.25998,1001.514
1.705644131,0.2931546,-0.2117482,-0.00551223,-0.4977776,0.1482343,0.8315079,2.694571,20.53583,-45.25998,1001.514
1.708141327,0.1691383,-0.09256312,-0.1279109,-0.4996701,0.1447952,0.8315336,2.694571,20.53583,-45.25998,1001.514
1.710638046,0.1071231,0.08614385,-0.06667052,-0.4948551,0.148802,0.8329351,2.694571,20.53583,-45.25998,1001.514
1.713135242,0.04512736,-0.1521204,-0.1278498,-0.4924262,0.1492818,0.8286312,2.694571,20.53583,-45.25998,1001.514
1.715632439,-0.01684891,-0.1520726,-0.25021,-0.493349,0.1463748,0.8305632,2.694571,20.53583,-45.25998,1001.514
1.718130112,0.04511847,-0.09246554,0.05586959,-0.4987073,0.1458384,0.8353468,2.694571,20.53583,-45.25998,1001.514
1.720627308,0.1070664,-0.03287719,0.05585204,-0.4967115,0.143441,0.8344074,2.694571,20.53583,-45.25998,1001.514
1.723124504,0.1070328,-0.1519855,-0.1889663,-0.496794,0.1477442,0.8296001,2.694571,20.53583,-45.25998,1001.514
1.725621700,0.1069991,-0.2710563,-0.2501071,-0.4943556,0.1477517,0.826255,2.694571,20.53583,-45.25998,1001.514
1.728119373,0.04500342,-0.09229326,-0.1888284,-0.4928442,0.1454018,0.8296145,2.694571,20.53583,-45.25998,1001.514
1.730616569,-0.07893489,0.08641364,-0.06636865,-0.4942695,0.1435,0.8348832,2.694571,20.53583,-45.25998,1001.517
1.733113766,-0.2028343,0.02682719,-0.1887482,-0.4952488,0.1434403,0.8320183,2.688413,20.91321,-44.81993,1001.517
1.735610962,0.0450778,-0.2114184,-0.2498891,-0.4927821,0.1420241,0.8310716,2.688413,20.91321,-44.81993,1001.517
1.738108635,0.04506364,-0.09223342,-0.1886104,-0.4947718,0.1438974,0.8291487,2.688413,20.91321,-44.81993,1001.517
1.740605831,0.04504949,-0.09220444,-0.1273509,-0.4909435,0.1483492,0.8291147,2.688413,20.91321,-44.81993,1001.517
1.743103027,0.1689595,-0.09217548,-0.1273109,-0.4944329,0.1521322,0.8271791,2.688413,20.91321,-44.81993,1001.517
1.745600223,-0.07894193,0.08653139,-0.1272709,-0.4938192,0.1447924,0.8219768,2.688413,20.91321,-44.81993,1001.517
1.748097897,-0.2028413,0.0269449,-0.004830554,-0.4943224,0.1463989,0.8339072,2.688413,20.91321,-44.81993,1001.517
1.750595093,-0.2647397,-0.03262287,-0.1272294,-0.4898431,0.1416082,0.8315505,2.688413,20.91321,-44.81993,1001.517
1.753092289,-0.1407323,-0.1517312,-0.1883897,-0.4933085,0.1445173,0.836786,2.688413,20.91321,-44.81993,1001.517
1.755589485,0.1691224,-0.09212425,-0.1271303,-0.4943278,0.1463215,0.8281758,2.688413,20.91321,-44.81993,1001.517
1.758087158,0.1071071,0.02702329,-0.06589013,-0.4957407,0.1433782,0.8281977,2.688413,20.91321,-44.81993,1001.517
1.760584354,0.04511138,-0.09210379,-0.1270696,-0.4967767,0.1467736,0.829607,2.688413,20.91321,-44.81993,1001.517
1.763081551,-0.07882697,-0.1516342,-0.06582952,-0.4972824,0.1477337,0.8296005,2.688413,20.91321,-44.81993,1001.517
1.765578747,-0.2027264,0.02709138,-0.127009,-0.4913931,0.1464554,0.8334274,2.688413,20.91321,-44.81993,1001.517
1.768075466,-0.1407006,0.1462015,-0.1269691,-0.4893539,0.1416316,0.8325053,2.688413,20.91321,-44.81993,1001.517
1.770572662,0.2930782,0.02703694,0.05667136,-0.493782,0.1434976,0.8339276,2.688413,20.91321,-44.81993,1001.513
1.773070335,-0.07878639,-0.1516495,-0.1881472,-0.4968219,0.1491744,0.8276792,2.688413,20.91321,-44.81993,1001.513
1.775567532,-0.07876164,0.02707608,-0.06568775,-0.4963391,0.1497153,0.8310187,2.688413,20.91321,-44.81993,1001.513
1.778064728,-0.2026611,0.08662688,-0.004466906,-0.4933646,0.1473711,0.8324668,2.688413,20.91321,-44.81993,1001.513
1.780561924,-0.2025974,-0.2707561,-0.06566571,-0.4933984,0.1493252,0.8334082,2.688413,20.91321,-44.81993,1001.513
1.783059597,-0.1405717,0.08668473,-0.004444875,-0.4987268,0.1467767,0.8329518,2.320559,20.8883,-45.7121,1001.513
1.785556793,-0.2644517,0.08665749,-0.2492443,-0.4937313,0.1405665,0.8325155,2.320559,20.8883,-45.7121,1001.513
1.788053989,-0.2643686,-0.03248833,-0.004365176,-0.4924291,0.1498508,0.8348368,2.320559,20.8883,-45.7121,1001.513
1.790551186,-0.1403614,0.08664048,-0.06556401,-0.4943064,0.1454089,0.8324813,2.320559,20.8883,-45.7121,1001.513
1.793048859,-0.1403173,-0.03250534,-0.1267436,-0.4971991,0.1428292,0.8258141,2.320559,20.8883,-45.7121,1001.513
1.795546055,-0.2022353,0.1461828,-0.1267038,-0.4967375,0.1448969,0.834397,2.320559,20.8883,-45.7121,1001.513
1.798043251,-0.01628548,0.1461369,-0.1878642,-0.4962715,0.1458071,0.829136,2.320559,20.8883,-45.7121,1001.513
1.800540447,-0.07824245,0.08653163,-0.126605,-0.4962788,0.1463117,0.8305653,2.320559,20.8883,-45.7121,1001.513
1.803038120,-0.14018,0.1460637,-0.1877654,-0.4941671,0.1376506,0.8330142,2.320559,20.8883,-45.7121,1001.513
1.805535316,-0.07817383,0.08645856,-0.06530601,-0.4962292,0.1439755,0.8372693,2.320559,20.8883,-45.7121,1001.513
1.808032513,-0.1401114,0.0864314,-0.06528549,-0.5010712,0.1414117,0.8349021,2.320559,20.8883,-45.7121,1001.513
1.810529709,-0.01614317,0.08640425,-0.1264652,-0.4990844,0.1394932,0.8334817,2.320559,20.8883,-45.7121,1001.513
1.813027382,-0.07810019,0.0863771,-0.1876256,-0.4977658,0.1477941,0.8348546,2.320559,20.8883,-45.7121,1001.513
1.815524578,-0.1400377,0.02679066,-0.1875667,-0.4962528,0.1448558,0.8305757,2.320559,20.8883,-45.7121,1001.513
1.818021774,-0.32588,-0.09233636,-0.06510738,-0.4932878,0.1429841,0.831065,2.320559,20.8883,-45.7121,1001.513
1.820518970,-0.3877397,0.02681126,-0.1874873,-0.4879758,0.1465161,0.8324697,2.320559,20.8883,-45.7121,1001.513
1.823016643,-0.3256558,0.08636214,-0.2486286,-0.4938355,0.14639,0.8324741,2.320559,20.8883,-45.7121,1001.513
1.825512886,-0.07770516,0.1458943,-0.06494991,-0.4948055,0.1464657,0.839639,2.320559,20.8883,-45.7121,1001.513
1.828011513,-0.1396428,0.02672987,-0.003729306,-0.4967342,0.1443343,0.8286691,2.320559,20.8883,-45.7121,1001.513
1.830507755,-0.201561,0.02672147,-0.1261285,-0.4982174,0.1452605,0.8277079,2.320559,20.8883,-45.7121,1001.513
1.833004951,-0.07757355,0.1458317,-0.1872891,-0.4938824,0.148765,0.8286358,3.049614,21.29002,-44.82713,1001.513
1.835502148,-0.2634355,0.08622657,-0.1260301,-0.496827,0.1497112,0.8314968,3.049614,21.29002,-44.82713,1001.513
1.837999821,-0.2013906,0.08619948,-0.1871907,-0.4967489,0.1453435,0.8315279,3.049614,21.29002,-44.82713,1001.513
1.840497017,0.04652103,0.205291,-0.2483321,-0.4937379,0.1404698,0.8253512,3.049614,21.29002,-44.82713,1001.513
1.842994213,-0.2633041,0.08610791,-0.2482541,-0.4913746,0.14489,0.8253183,3.049614,21.29002,-44.82713,1001.513
1.845491409,-0.3871455,0.08608085,-0.3705765,-0.4942882,0.1444512,0.8334435,3.049614,21.29002,-44.82713,1001.513
1.847989082,-0.2011376,0.08605381,-0.1868595,-0.495758,0.1443488,0.8281907,3.049614,21.29002,-44.82713,1001.513
1.850486278,-0.2010744,-0.1522104,-0.2480009,-0.4917756,0.140033,0.8258309,3.049614,21.29002,-44.82713,1001.514
1.852983475,-0.1390492,-0.09260331,-0.3091232,-0.4922933,0.142041,0.8315489,3.049614,21.29002,-44.82713,1001.514
1.855480671,-0.1390055,0.08610369,-0.2478259,-0.4908085,0.1405264,0.8248714,3.049614,21.29002,-44.82713,1001.514
1.857978344,-0.262886,0.08607663,-0.3089483,-0.4913363,0.1430004,0.8291531,3.049614,21.29002,-44.82713,1001.514
1.860475540,-0.01495503,0.1456089,-0.247651,-0.4962094,0.1424294,0.830593,3.049614,21.29002,-44.82713,1001.514
1.862972736,-0.01495033,0.08600385,-0.3087734,-0.4956999,0.1409131,0.8253492,3.049614,21.29002,-44.82713,1001.514
1.865469933,0.1089785,0.02641753,-0.3086764,-0.4923385,0.1444417,0.829621,3.049614,21.29002,-44.82713,1001.514
1.867967606,0.04698221,0.3242057,-0.3697796,-0.4919974,0.1527087,0.8300396,3.049614,21.29002,-44.82713,1001.514
1.870464802,-0.2008809,0.145426,-0.4308637,-0.4899738,0.1488812,0.831021,3.049614,21.29002,-44.82713,1001.514
1.872961998,-0.2627799,-0.03329761,-0.2471277,-0.4957193,0.1424656,0.8325031,3.049614,21.29002,-44.82713,1001.514
1.875459194,-0.4485836,-0.03328715,-0.3694504,-0.4948264,0.1473847,0.8358112,3.049614,21.29002,-44.82713,1001.514
1.877955914,-0.5104048,-0.03327669,-0.6141352,-0.4904334,0.1474535,0.8338974,3.049614,21.29002,-44.82713,1001.514
1.880453110,-0.6341686,-0.09282554,-0.3691415,-0.4922842,0.1415621,0.8320299,3.049614,21.29002,-44.82713,1001.514
1.882950783,-0.6339694,-0.09279638,-0.4302257,-0.4985623,0.1375497,0.8325399,2.681925,21.2736,-45.27282,1001.514
1.885447979,-0.571808,0.2645886,-0.4912907,-0.4955461,0.1327533,0.8320947,2.681925,21.2736,-45.27282,1001.514
1.887945175,-0.3237801,0.3240648,-0.4299362,-0.4933285,0.1454493,0.8339134,2.681925,21.2736,-45.27282,1001.514
1.890446663,-0.3236784,0.145285,-0.4298011,-0.4987876,0.1501738,0.8329276,2.681925,21.2736,-45.27282,1001.518
1.892940044,-0.3855388,0.0856801,-0.4296661,-0.4948616,0.1493195,0.8353198,2.681925,21.2736,-45.27282,1001.518
1.895437241,-0.633266,0.02609389,-0.4295311,-0.5002604,0.1506405,0.8338804,2.681925,21.2736,-45.27282,1001.518
1.897934437,-0.6950291,-0.03347361,-0.4905964,-0.501245,0.1505035,0.8252841,2.681925,21.2736,-45.27282,1001.518
1.900431633,-0.6948108,-0.3312596,-0.5516425,-0.4973232,0.1501989,0.8324489,2.681925,21.2736,-45.27282,1001.518
1.902929306,-1.562062,-0.3907148,-0.6738696,-0.490854,0.1435348,0.832015,2.681925,21.2736,-45.27282,1001.518
1.905426502,-1.127836,-0.1523549,-0.6736578,-0.4877921,0.1363442,0.8339751,2.681925,21.2736,-45.27282,1001.518
1.907923698,-0.5698233,0.02637088,-0.4898456,-0.4888458,0.140096,0.8258287,2.681925,21.2736,-45.27282,1001.518
1.910420895,-0.4457201,-0.092756,-0.6120921,-0.4972403,0.1452879,0.8281849,2.681925,21.2736,-45.27282,1001.518
1.912918568,-0.4455801,-0.09272686,-0.8567007,-0.493332,0.1453977,0.8300925,2.681925,21.2736,-45.27282,1001.518
1.915415764,-0.6932884,-0.152257,-0.8564315,-0.4884312,0.1445386,0.8305734,2.681925,21.2736,-45.27282,1001.518
1.917912960,-0.5691465,-0.2713278,-0.8561624,-0.4948997,0.1518233,0.8410339,2.681925,21.2736,-45.27282,1001.518
1.920410156,-1.064664,-0.2116833,-0.8558935,-0.4904606,0.1495042,0.8420031,2.681925,21.2736,-45.27282,1001.518
1.922907829,-1.126292,-0.09249815,-0.8556246,-0.4893891,0.1435663,0.8320139,2.681925,21.2736,-45.27282,1001.518
1.925405025,-0.9400519,-0.0924691,-0.9777562,-0.494801,0.1453082,0.825795,2.681925,21.2736,-45.27282,1001.518
1.927902222,-0.8158324,-0.271118,-1.099849,-0.4949268,0.1526521,0.8305193,2.681925,21.2736,-45.27282,1001.518
1.930399418,-0.8775381,0.1458823,-0.9771035,-0.4940586,0.1590464,0.8352498,2.681925,21.2736,-45.27282,1001.514
1.932897091,-1.310997,-0.0328414,-1.037997,-0.4940225,0.1571245,0.8366964,2.688413,20.91321,-44.81993,1001.514
1.935394287,-1.806282,-0.1519497,-1.160071,-0.4986752,0.1438585,0.8324949,2.688413,20.91321,-44.81993,1001.514
1.937891006,-1.805714,-0.2114612,-1.343307,-0.4892944,0.1382152,0.8310966,2.688413,20.91321,-44.81993,1001.514
1.940388203,-1.309451,-0.03271691,-1.159285,-0.4927302,0.1384981,0.8215434,2.688413,20.91321,-44.81993,1001.514
1.942885399,-0.565494,-0.2709438,-1.15892,-0.502652,0.147644,0.831515,2.688413,20.91321,-44.81993,1001.514
1.945382595,-1.061013,-0.3899773,-1.280957,-0.4929729,0.1533147,0.8405444,2.688413,20.91321,-44.81993,1001.514
1.947880268,-2.052073,-0.1516176,-1.341754,-0.4874899,0.1471021,0.8391526,2.688413,20.91321,-44.81993,1001.514
1.950377464,-2.175353,-0.15157,-1.280133,-0.4955717,0.1342156,0.8325619,2.688413,20.91321,-44.81993,1001.514
1.952874660,-1.678973,-0.2110817,-1.21853,-0.5016255,0.144721,0.8291469,2.688413,20.91321,-44.81993,1001.514
1.955371857,-0.9349001,0.08678116,-1.218148,-0.4899286,0.1464805,0.8329487,2.688413,20.91321,-44.81993,1001.514
1.957869530,-0.74872,0.1463132,-1.095364,-0.4958108,0.1478619,0.8367636,2.688413,20.91321,-44.81993,1001.514
1.960366726,-1.553992,-0.2110886,-1.278621,-0.4943857,0.1503715,0.8405663,2.688413,20.91321,-44.81993,1001.514
1.962863922,-2.111163,-0.2705815,-1.339419,-0.4898309,0.1411745,0.8353749,2.688413,20.91321,-44.81993,1001.514
1.965361118,-1.986575,-0.09181865,-1.400199,-0.5005903,0.1413127,0.8267823,2.688413,20.91321,-44.81993,1001.514
1.967858791,-1.552217,-0.4491456,-1.338559,-0.4996714,0.1447759,0.8301007,2.688413,20.91321,-44.81993,1001.514
1.970355988,-1.365843,-0.2703266,-1.399338,-0.4885843,0.1533191,0.8338545,2.688413,20.91321,-44.81993,1001.514
1.972853184,-1.303451,-0.1511231,-1.398899,-0.4928493,0.1459386,0.833432,2.688413,20.91321,-44.81993,1001.511
1.975350380,-1.674814,-0.2701942,-1.52086,-0.4957545,0.1444004,0.8320117,2.688413,20.91321,-44.81993,1001.511
1.977848053,-1.860175,-0.2701093,-1.275581,-0.493868,0.1483635,0.8348483,2.688413,20.91321,-44.81993,1001.511
1.980345249,-1.85959,-0.2700244,-1.21398,-0.5001553,0.1448298,0.8348772,2.688413,20.91321,-44.81993,1001.511
1.982842445,-1.67312,-0.2699396,-1.5196,-0.490665,0.1322184,0.8206317,2.314236,21.25718,-45.71852,1001.511
1.985339642,-0.4333523,0.2066196,-1.335522,-0.4848889,0.1372425,0.8239361,2.314236,21.25718,-45.71852,1001.511
1.987837315,0.3103289,0.266114,-1.457503,-0.5046244,0.1485468,0.829599,2.314236,21.25718,-45.71852,1001.511
1.990333557,-1.052935,-0.1508847,-1.518245,-0.4997697,0.1512974,0.845817,2.314236,21.25718,-45.71852,1001.511
1.992831230,-2.353808,-0.3890745,-1.578968,-0.4986276,0.1421042,0.8463597,2.314236,21.25718,-45.71852,1001.511
1.995328426,-2.600917,-0.5080709,-1.700873,-0.5058572,0.13538,0.8273053,2.314236,21.25718,-45.71852,1001.511
1.997825623,-2.352251,-0.5674706,-1.761539,-0.4976106,0.1384317,0.8244127,2.314236,21.25718,-45.71852,1001.511
2.000322819,-1.731891,-0.4481737,-1.699785,-0.4907761,0.138553,0.8224972,2.314236,21.25718,-45.71852,1001.511
2.002820492,-1.545461,-0.864948,-1.760451,-0.4913579,0.1445207,0.8339189,2.314236,21.25718,-45.71852,1001.511
2.005317688,-2.226558,-1.162473,-1.759898,-0.4875307,0.1495672,0.842001,2.314236,21.25718,-45.71852,1001.511
2.007814884,-2.907442,-0.6856331,-1.759345,-0.494182,0.1392676,0.8449444,2.314236,21.25718,-45.71852,1001.511
2.010312080,-2.101021,-0.328062,-1.758792,-0.5004585,0.1334448,0.8191957,2.314236,21.25718,-45.71852,1001.511
2.012809753,-1.232892,-0.5066369,-1.69704,-0.4971506,0.1398659,0.8220139,2.314236,21.25718,-45.71852,1001.513
2.015306950,-0.9226941,-0.5064777,-1.635306,-0.4986899,0.1448678,0.8353537,2.314236,21.25718,-45.71852,1001.513
2.017804146,-1.480063,-0.6849964,-1.757193,-0.4991624,0.1444751,0.8429994,2.314236,21.25718,-45.71852,1001.513
2.020301342,-2.099219,-0.6252219,-1.756641,-0.4971295,0.139561,0.8353907,2.314236,21.25718,-45.71852,1001.513
2.022799015,-1.974635,-0.4463476,-1.633689,-0.4965596,0.1346412,0.8296934,2.314236,21.25718,-45.71852,1001.513
2.025296211,-1.478318,-0.6844445,-1.633175,-0.4937201,0.1395057,0.8258358,2.314236,21.25718,-45.71852,1001.513
2.027793407,-1.230005,-0.6246703,-1.632662,-0.4883795,0.1416204,0.8301166,2.314236,21.25718,-45.71852,1001.513
2.030290603,-0.7339223,-0.5053554,-1.448549,-0.4971568,0.1409976,0.8339474,2.314236,21.25718,-45.71852,1001.513
2.032788276,-0.7336917,-0.7434339,-1.631694,-0.4996605,0.1443228,0.8324922,2.675767,21.65099,-44.83278,1001.513
2.035285473,-1.415044,-0.8027596,-1.386381,-0.4938045,0.145005,0.8377382,2.675767,21.65099,-44.83278,1001.513
2.037782669,-1.4146,-0.8025074,-1.691946,-0.4931348,0.1348114,0.8368552,2.675767,21.65099,-44.83278,1001.513
2.040279865,-1.476117,-0.5640181,-1.752615,-0.4975479,0.1356746,0.8358963,2.675767,21.65099,-44.83278,1001.513
2.042777538,-1.413692,-0.6234002,-1.629664,-0.4971678,0.1414506,0.8315559,2.675767,21.65099,-44.83278,1001.513
2.045274734,-1.165399,-0.742323,-1.445552,-0.4918315,0.1435009,0.8310604,2.675767,21.65099,-44.83278,1001.513
2.047771930,-0.9791466,-0.2060561,-1.445097,-0.491137,0.1318321,0.828755,2.675767,21.65099,-44.83278,1001.513
2.050268650,-0.916877,-0.3846692,-1.505844,-0.4946024,0.1347412,0.8339906,2.675767,21.65099,-44.83278,1001.513
2.052765846,-1.598172,-0.6823449,-1.627771,-0.4878302,0.138848,0.8396893,2.675767,21.65099,-44.83278,1001.512
2.055263042,-1.721594,-0.1460968,-1.504859,-0.4937551,0.1420546,0.8348932,2.675767,21.65099,-44.83278,1001.512
2.057760715,-1.411243,-0.1460509,-1.504386,-0.4965452,0.1342397,0.835906,2.675767,21.65099,-44.83278,1001.512
2.060257911,-1.72061,-0.324683,-1.503914,-0.4931304,0.1348758,0.8416314,2.675767,21.65099,-44.83278,1001.512
2.062755108,-1.596145,-0.2054623,-1.442241,-0.4961615,0.1400673,0.8353865,2.675767,21.65099,-44.83278,1001.512
2.065252304,-0.9140607,-0.1458385,-1.441788,-0.4956707,0.1395023,0.8287029,2.675767,21.65099,-44.83278,1001.512
2.067749977,-0.6659251,-0.205352,-1.502535,-0.4995597,0.1390619,0.8382617,2.675767,21.65099,-44.83278,1001.512
2.070247173,-1.285337,-0.2052875,-1.196062,-0.489757,0.1373565,0.8401787,2.675767,21.65099,-44.83278,1001.512
2.072744369,-1.594743,-0.205223,-1.318087,-0.4979433,0.1302871,0.833069,2.675767,21.65099,-44.83278,1001.512
2.075241565,-1.346394,0.03307872,-1.317673,-0.4979365,0.1297761,0.831162,2.675767,21.65099,-44.83278,1001.512
2.077739239,-0.9122365,-0.08605028,-1.317259,-0.4969456,0.1287814,0.8278248,2.675767,21.65099,-44.83278,1001.512
2.080236435,-0.6641015,0.09265466,-1.194445,-0.5010495,0.1398914,0.8301364,2.675767,21.65099,-44.83278,1001.512
2.082733631,-0.4780066,0.09262554,-1.132869,-0.4991383,0.1423792,0.8315504,3.055772,20.91264,-45.26717,1001.512
2.085230827,-0.4778565,-0.08608145,-1.132513,-0.502003,0.1389836,0.8363529,3.055772,20.91264,-45.26717,1001.512
2.087728500,-1.035365,-0.08605441,-1.193358,-0.4947088,0.1405326,0.831561,3.055772,20.91264,-45.26717,1001.512
2.090225696,-1.220926,-0.205146,-1.070582,-0.4921691,0.1352855,0.8344629,3.055772,20.91264,-45.26717,1001.512
2.092722893,-0.9107322,-0.08596293,-0.9478455,-0.4969845,0.1312723,0.8325837,3.055772,20.91264,-45.26717,1001.514
2.095220089,-0.5386735,0.09274198,-1.008748,-0.4940108,0.1289153,0.8330765,3.055772,20.91264,-45.26717,1001.514
2.097717762,-0.4765422,0.2118315,-0.8248305,-0.4976639,0.1419383,0.832508,3.055772,20.91264,-45.26717,1001.514
2.100214958,-0.4763924,0.09264629,-0.6409707,-0.4977021,0.143828,0.8286732,3.055772,20.91264,-45.26717,1001.514
2.102712154,-0.7860532,-0.08606072,-0.7631698,-0.4985439,0.1372061,0.843051,3.055772,20.91264,-45.26717,1001.514
2.105210304,-0.9097305,0.03308493,-0.8241302,-0.4960651,0.1347419,0.8363797,3.055772,20.91264,-45.26717,1001.514
2.107706070,-0.8474826,-0.02648477,-0.7626711,-0.4984786,0.1326516,0.8292311,3.055772,20.91264,-45.26717,1001.514
2.110203266,-0.4754438,-0.02647645,-0.6400311,-0.4988901,0.1282541,0.8278297,3.055772,20.91264,-45.26717,1001.514
2.112700939,-0.165484,0.09265047,-0.7010303,-0.4965427,0.1336642,0.8292227,3.055772,20.91264,-45.26717,1001.514
2.115198135,-0.165432,0.2712993,-0.6396098,-0.4995659,0.1389717,0.831575,3.055772,20.91264,-45.26717,1001.514
2.117695331,-0.2273421,0.4498919,-0.5782086,-0.5009828,0.1359704,0.8272982,3.055772,20.91264,-45.26717,1001.514
2.120192528,-0.2272707,0.0923948,-0.6392272,-0.4970088,0.132754,0.8344838,3.055772,20.91264,-45.26717,1001.514
2.122690201,-0.4750476,0.03280647,-0.6390264,-0.4974789,0.1317858,0.8354464,3.055772,20.91264,-45.26717,1001.514
2.125187397,-0.2890122,0.1519148,-0.5776255,-0.4965757,0.1356312,0.8311194,3.055772,20.91264,-45.26717,1001.514
2.127684593,-0.1030351,0.151867,-0.5162438,-0.4951203,0.1361351,0.8301597,3.055772,20.91264,-45.26717,1001.514
2.130181789,-0.2269269,0.1518193,-0.5772818,-0.4937491,0.1415306,0.832031,3.055772,20.91264,-45.26717,1001.514
2.132679462,-0.2888177,0.3304495,-0.3322996,-0.4971825,0.1424599,0.8344147,2.307913,21.62607,-45.72495,1001.512
2.135176658,-0.288727,0.2112271,-0.3321952,-0.4989638,0.1326862,0.8325748,2.307913,21.62607,-45.72495,1001.512
2.137673855,-0.10275,0.449398,-0.2708907,-0.497541,0.1351635,0.8339893,2.307913,21.62607,-45.72495,1001.512
2.140171051,-0.4125282,0.3301382,-0.5156063,-0.5000424,0.138521,0.8349221,2.307913,21.62607,-45.72495,1001.512
2.142668724,-0.3504365,0.1513566,-0.4542442,-0.4985766,0.1385654,0.8358763,2.307913,21.62607,-45.72495,1001.512
2.145165920,-0.2883643,0.151309,-0.3929013,-0.4941524,0.1366414,0.8301555,2.307913,21.62607,-45.72495,1001.512
2.147663116,-0.2882737,0.1512615,-0.3927778,-0.4966109,0.1375659,0.8306279,2.307913,21.62607,-45.72495,1001.512
2.150160312,-0.04033478,0.2107733,-0.3314542,-0.4980923,0.1385179,0.8315774,2.307913,21.62607,-45.72495,1001.512
2.152657985,-0.1022842,0.2702664,-0.3313501,-0.4976182,0.1395441,0.8349134,2.307913,21.62607,-45.72495,1001.512
2.155155182,-0.1022521,0.03194423,-0.2700458,-0.4922646,0.1406237,0.8344249,2.307913,21.62607,-45.72495,1001.512
2.157652378,-0.2261441,0.2106121,-0.269961,-0.4942334,0.1415781,0.8363299,2.307913,21.62607,-45.72495,1001.512
2.160149574,-0.164111,0.3892238,-0.2698762,-0.4946723,0.1386172,0.8334853,2.307913,21.62607,-45.72495,1001.512
2.162647247,-0.2260215,0.2104236,-0.3309916,-0.4957002,0.1415208,0.8344205,2.307913,21.62607,-45.72495,1001.512
2.165143966,-0.1639884,0.2699169,-0.3920878,-0.4960921,0.1361849,0.8354142,2.307913,21.62607,-45.72495,1001.512
2.167641163,-0.225899,0.269832,-0.3307644,-0.4926556,0.1353008,0.8363737,2.307913,21.62607,-45.72495,1001.512
2.170138359,-0.3497522,0.1506287,-0.4530609,-0.4975835,0.1376029,0.8349272,2.307913,21.62607,-45.72495,1001.512
2.172635555,-0.3496423,0.3888186,-0.3917184,-0.497577,0.1370854,0.8325426,2.307913,21.62607,-45.72495,1001.51
2.175133228,-0.1636462,0.2100185,-0.3915953,-0.4974815,0.1317471,0.8325807,2.307913,21.62607,-45.72495,1001.51
2.177630424,-0.287519,0.2099525,-0.3914723,-0.4956754,0.1400456,0.832998,2.307913,21.62607,-45.72495,1001.51
2.180127621,-0.0395803,0.2098866,-0.3301491,-0.4957398,0.1433911,0.8291529,2.307913,21.62607,-45.72495,1001.51
2.182624817,-0.163492,-0.08797587,-0.4524458,-0.4971927,0.1435336,0.8420497,2.314401,21.26568,-45.27206,1001.51
2.185122013,-0.9069858,-0.5644226,-0.4523036,-0.4956704,0.1407306,0.8478007,2.314401,21.26568,-45.27206,1001.51
2.187619686,-1.712208,-0.9216011,-0.3909613,-0.488747,0.135417,0.8387589,2.314401,21.26568,-45.27206,1001.51
2.190116882,-1.835594,-0.2066,-0.3296383,-0.5023543,0.1305684,0.8249493,2.314401,21.26568,-45.27206,1001.51
2.192614078,-0.2859654,0.5677359,-0.2683346,-0.5034255,0.1346766,0.807247,2.314401,21.26568,-45.27206,1001.51
2.195111275,0.7055179,-0.08759484,-0.4518509,-0.4912156,0.1361933,0.8282463,2.314401,21.26568,-45.27206,1001.51
2.197608948,0.2095996,-0.1471266,-0.3905087,-0.4958422,0.1504624,0.8496421,2.314401,21.26568,-45.27206,1001.51
2.200106144,-0.7818597,0.1507161,-0.6963871,-0.499649,0.1444903,0.8449103,2.314401,21.26568,-45.27206,1001.51
2.202608108,-1.029462,0.09110945,-0.5737678,-0.5019867,0.1373859,0.8258557,2.314401,21.26568,-45.27206,1001.51
2.205100536,-0.9052148,-0.3258343,-0.389987,-0.4897215,0.1348141,0.8315989,2.314401,21.26568,-45.27206,1001.51
2.207598209,-0.7190441,-0.2066133,-0.3286643,-0.4907674,0.1392896,0.8411208,2.314401,21.26568,-45.27206,1001.51
2.210095405,-0.3470458,0.09124811,-0.4509614,-0.4961637,0.1400351,0.8329984,2.314401,21.26568,-45.27206,1001.51
2.212592602,-0.3469367,0.1507787,-0.5120199,-0.5001453,0.1443638,0.8363135,2.314401,21.26568,-45.27206,1001.513
2.215089798,-0.6566381,-0.08750582,-0.5118591,-0.495685,0.140518,0.8320394,2.314401,21.26568,-45.27206,1001.513
2.217587471,-0.780356,-0.2065969,-0.5116983,-0.4941384,0.1362334,0.8358904,2.314401,21.26568,-45.27206,1001.513
2.220084667,-0.7181488,-0.08741343,-0.4503374,-0.498643,0.1424928,0.839192,2.314401,21.26568,-45.27206,1001.513
2.222581386,-0.5320369,-0.08738597,-0.6949967,-0.4956343,0.1375869,0.8306272,2.314401,21.26568,-45.27206,1001.513
2.225078583,-0.655794,-0.385155,-0.7559785,-0.4912401,0.1382827,0.8392177,2.314401,21.26568,-45.27206,1001.513
2.227576732,-0.655588,-0.3254747,-0.6333407,-0.4970722,0.1361124,0.8315939,2.314401,21.26568,-45.27206,1001.513
2.230073452,-0.717344,-0.08713526,-0.6331416,-0.5004141,0.1316454,0.8297171,2.314401,21.26568,-45.27206,1001.513
2.232570648,-0.7790808,-0.08710789,-0.5105423,-0.4956356,0.1375676,0.8291944,2.30192,22.01195,-44.83844,1001.513
2.235067844,-0.7788361,-0.08708052,-0.6327823,-0.4980745,0.1375537,0.8320619,2.30192,22.01195,-44.83844,1001.513
2.237565040,-0.7166293,-0.2657311,-0.6937838,-0.4975548,0.1361856,0.8378033,2.30192,22.01195,-44.83844,1001.513
2.240062713,-0.6544421,-0.08696969,-0.6323656,-0.4945964,0.1342173,0.8311283,2.30192,22.01195,-44.83844,1001.513
2.242559910,-0.6542364,-0.206061,-0.6321669,-0.4975189,0.1336496,0.8297011,2.30192,22.01195,-44.83844,1001.513
2.245057106,-0.5920689,-0.3251148,-0.7543687,-0.4945759,0.1332918,0.8344786,2.30192,22.01195,-44.83844,1001.513
2.247554302,-0.4679587,-0.0867755,-0.6929315,-0.494094,0.1338198,0.8368628,2.30192,22.01195,-44.83844,1001.513
2.250051975,-0.5297737,-0.02718893,-0.6315137,-0.4965612,0.1352296,0.8373319,2.30192,22.01195,-44.83844,1001.513
2.252549171,-0.4676452,-0.08673969,-0.5089148,-0.4956069,0.1361503,0.8320705,2.30192,22.01195,-44.83844,1001.513
2.255046367,-0.5294604,-0.205831,-0.6923556,-0.4974889,0.1322517,0.8340101,2.30192,22.01195,-44.83844,1001.513
2.257543564,-0.7771424,-0.1462071,-0.6309379,-0.4946098,0.1352459,0.83542,2.30192,22.01195,-44.83844,1001.513
2.260040760,-0.7768983,-0.02704254,-0.4471391,-0.4940433,0.1308887,0.8354508,2.30192,22.01195,-44.83844,1001.513
2.262538433,-0.5907679,-0.08659334,-0.4469986,-0.4955826,0.1346687,0.8301704,2.30192,22.01195,-44.83844,1001.513
2.265035629,-0.5286202,-0.1461254,-0.5080584,-0.4926817,0.1367566,0.8363634,2.30192,22.01195,-44.83844,1001.513
2.267532825,-0.6523783,-0.08652023,-0.5078987,-0.4893156,0.139742,0.8363401,2.30192,22.01195,-44.83844,1001.513
2.270030021,-0.2804009,-0.3247303,-0.5689394,-0.4989907,0.1341292,0.8316092,2.30192,22.01195,-44.83844,1001.513
2.272527695,-0.466199,-0.08639103,-0.5075604,-0.4907302,0.1367729,0.8344514,2.30192,22.01195,-44.83844,1001.513
2.275024891,-0.4660526,-0.2054825,-0.507401,-0.4897476,0.1362699,0.8315885,2.30192,22.01195,-44.83844,1001.513
2.277521610,-0.4659061,-0.02674004,-0.5684418,-0.496685,0.1419916,0.8348954,2.30192,22.01195,-44.83844,1001.513
2.280018806,-0.6516461,-0.02673164,-0.6294634,-0.4994898,0.1351859,0.8387669,2.30192,22.01195,-44.83844,1001.513
2.282516002,-0.5275171,-0.02672324,-0.5680655,-0.5014617,0.1360952,0.8373286,2.688413,20.91321,-44.81993,1001.513
2.285013676,-0.4034273,-0.08627415,-0.4454866,-0.4966113,0.1375595,0.8301504,2.688413,20.91321,-44.81993,1001.513
2.287510872,-0.4033005,-0.1458063,-0.4453466,-0.4941622,0.1377215,0.838268,2.688413,20.91321,-44.81993,1001.513
2.290008068,-0.5270979,0.09247667,-0.6288073,-0.4980544,0.1366218,0.8349345,2.688413,20.91321,-44.81993,1001.513
2.292505264,-0.5269324,0.09244761,-0.5062094,-0.4980062,0.1342662,0.8402056,2.688413,20.91321,-44.81993,1001.513
2.295002937,-0.4648048,0.03285927,-0.3836499,-0.4961402,0.1391547,0.8396919,2.688413,20.91321,-44.81993,1001.513
2.297500133,-0.5885829,-0.08626965,-0.6283302,-0.5004049,0.1311666,0.8301982,2.688413,20.91321,-44.81993,1001.513
2.299997330,-0.8982085,-0.08624256,-0.4445322,-0.4998997,0.1302,0.8297271,2.688413,20.91321,-44.81993,1001.513
2.302494526,-0.6500779,-0.08621546,-0.5055928,-0.4945105,0.1293514,0.8302077,2.688413,20.91321,-44.81993,1001.513
2.304992199,-0.4020254,0.09248953,-0.4442337,-0.4978881,0.1274205,0.8364331,2.688413,20.91321,-44.81993,1001.513
2.307489395,-0.5258232,-0.02665813,-0.3216938,-0.5033624,0.1331478,0.8378284,2.688413,20.91321,-44.81993,1001.513
2.309986591,-0.525658,-0.02664975,-0.3215927,-0.5004824,0.1361548,0.8401936,2.688413,20.91321,-44.81993,1001.513
2.312483787,-0.4015687,0.03291792,-0.4438921,-0.5020156,0.1394109,0.832051,2.688413,20.91321,-44.81993,1001.513
2.314981460,-0.6492909,-0.1457703,-0.4437526,-0.4940703,0.1323317,0.8344851,2.688413,20.91321,-44.81993,1001.513
2.317478657,-0.649087,-0.02660593,-0.3212128,-0.4980197,0.1346806,0.8349484,2.688413,20.91321,-44.81993,1001.513
2.319975853,-0.5869209,0.03296173,-0.1987115,-0.5005187,0.1374625,0.829198,2.688413,20.91321,-44.81993,1001.513
2.322473049,-0.4628124,-0.08616723,-0.3822497,-0.4979594,0.1312771,0.8344949,2.688413,20.91321,-44.81993,1001.513
2.324970722,-0.462667,-0.1456995,-0.3821296,-0.4964804,0.1309006,0.8402287,2.688413,20.91321,-44.81993,1001.513
2.327467918,-0.7723321,-0.205213,-0.3208093,-0.4974355,0.1293593,0.8354637,2.688413,20.91321,-44.81993,1001.513
2.329965114,-0.7720894,-0.1455892,-0.1371079,-0.4945748,0.132697,0.8263626,2.688413,20.91321,-44.81993,1001.513
2.332462311,-0.7718469,-0.1455435,-0.1370649,-0.4951012,0.1351902,0.832077,2.308243,21.64306,-44.83202,1001.513
2.334959507,-0.5857182,0.03318015,-0.1370218,-0.4965539,0.134725,0.8359025,2.308243,21.64306,-44.83202,1001.515
2.337456226,-0.4616099,-0.1455082,-0.2593791,-0.5015376,0.140495,0.8396856,2.308243,21.64306,-44.83202,1001.515
2.339953899,-0.5234269,-0.1454625,-0.1980975,-0.4995407,0.1375029,0.8306301,2.308243,21.64306,-44.83202,1001.515
2.342451095,-0.6471868,-0.02629816,-0.07563484,-0.4966369,0.1390218,0.8306175,2.308243,21.64306,-44.83202,1001.515
2.344948292,-0.7709076,-0.1454085,-0.1368113,-0.4935859,0.1322842,0.8301862,2.308243,21.64306,-44.83202,1001.515
2.347445488,-0.5847791,0.09287439,0.04683231,-0.4945751,0.1333047,0.8354338,2.308243,21.64306,-44.83202,1001.515
2.349943161,-0.3987092,0.09284521,-0.0143826,-0.4946302,0.1361713,0.8320698,2.308243,21.64306,-44.83202,1001.515
2.352440357,-0.2746598,-0.1454212,-0.1367785,-0.4941114,0.1347904,0.8368559,2.308243,21.64306,-44.83202,1001.515
2.354937553,-0.2126114,-0.1453755,0.04686508,-0.4975,0.1333125,0.8406898,2.308243,21.64306,-44.83202,1001.515
2.357434749,-0.522355,-0.0857705,-0.01434984,-0.4979819,0.1327845,0.8383055,2.308243,21.64306,-44.83202,1001.515
2.359932422,-0.5221909,0.03337504,-0.07554553,-0.4970132,0.1326895,0.8297076,2.308243,21.64306,-44.83202,1001.515
2.362429619,-0.3981027,-0.02619474,0.04687861,-0.4921348,0.1333379,0.8339992,2.308243,21.64306,-44.83202,1001.515
2.364926815,-0.2740535,-0.08574581,-0.1979369,-0.4966039,0.1370548,0.8287209,2.308243,21.64306,-44.83202,1001.515
2.367424011,-0.1500432,-0.02615958,-0.01427414,-0.4994552,0.1326306,0.8292319,2.308243,21.64306,-44.83202,1001.515
2.369921684,-0.149996,-0.08571066,0.04693054,-0.4945915,0.1342881,0.8363821,2.308243,21.64306,-44.83202,1001.515
2.372418880,-0.2738731,-0.2048023,0.2305164,-0.4994907,0.135173,0.8378117,2.308243,21.64306,-44.83202,1001.515
2.374916077,-0.1498629,-0.2642973,0.2916442,-0.4975579,0.1361405,0.83446,2.308243,21.64306,-44.83202,1001.514
2.377413273,0.03607048,-0.2642143,0.107952,-0.4965191,0.1327838,0.8359163,2.308243,21.64306,-44.83202,1001.514
2.379910946,-0.02590295,-0.2641312,0.1691183,-0.4940086,0.1289475,0.8354646,2.308243,21.64306,-44.83202,1001.514
2.382408142,-0.0878569,-0.1449297,0.2302653,-0.4965231,0.1327258,0.8316178,3.043291,21.65891,-44.83355,1001.514
2.384905338,0.03609488,-0.1448841,0.2913932,-0.4994334,0.1317244,0.834015,3.043291,21.65891,-44.83355,1001.514
2.387402534,-0.08784064,-0.3235165,0.1689012,-0.4950981,0.1352354,0.8354204,3.043291,21.65891,-44.83355,1001.514
2.389900207,-0.02585095,-0.2042963,0.04644777,-0.4950787,0.1336828,0.8282664,3.043291,21.65891,-44.83355,1001.514
2.392397404,0.03611926,0.03400509,0.291234,-0.4960019,0.1307693,0.8297207,3.043291,21.65891,-44.83355,1001.514
2.394894123,0.03610791,-0.1446835,0.3523427,-0.4970645,0.1356142,0.8306421,3.043291,21.65891,-44.83355,1001.514
2.397391319,0.09805866,-0.144638,0.352232,-0.4960704,0.1346646,0.8306483,3.043291,21.65891,-44.83355,1001.514
2.399888515,0.2839141,-0.5615077,0.3521214,-0.4911119,0.1303633,0.8278101,3.043291,21.65891,-44.83355,1001.514
2.402385712,0.2838249,-0.3826534,0.2908105,-0.4960713,0.1346517,0.8296931,3.043291,21.65891,-44.83355,1001.514
2.404883385,0.1598116,-0.3229739,0.1683188,-0.4985401,0.1366499,0.8378006,3.043291,21.65891,-44.83355,1001.514
2.407380581,0.3456477,-0.3824317,0.2906663,-0.4931253,0.134339,0.8378139,3.043291,21.65891,-44.83355,1001.514
2.409877777,0.4075012,-0.263193,0.4741756,-0.5000059,0.1366055,0.8368464,3.043291,21.65891,-44.83355,1001.514
2.412374973,0.2214869,-0.3822289,0.4128264,-0.4970257,0.133731,0.8349545,3.043291,21.65891,-44.83355,1001.514
2.414872646,0.1594552,-0.3821088,0.3514965,-0.4974642,0.1307765,0.8325876,3.043291,21.65891,-44.83355,1001.514
2.417369842,0.4072535,-0.5011073,0.5349867,-0.4965249,0.1327,0.8297073,3.043291,21.65891,-44.83355,1001.514
2.419867039,0.3451634,-0.2627127,0.5960188,-0.4960132,0.131216,0.8268516,3.043291,21.65891,-44.83355,1001.514
2.422364235,0.5929034,-0.3221895,0.3510308,-0.4970101,0.1327346,0.833051,3.043291,21.65891,-44.83355,1001.514
2.424861908,0.5927171,-0.4412069,0.4121207,-0.4937026,0.1391492,0.8353916,3.043291,21.65891,-44.83355,1001.514
2.427359104,0.2207583,-0.3219497,0.5955918,-0.4955973,0.1356779,0.8330292,3.043291,21.65891,-44.83355,1001.514
2.429856300,0.4065753,-0.4409671,0.7178051,-0.4964896,0.1313795,0.8397476,3.043291,21.65891,-44.83355,1001.514
2.432353496,0.716258,-0.32171,0.5951792,-0.4990319,0.1365879,0.83398,3.043126,21.65041,-45.28001,1001.514
2.434851169,0.8399572,-0.2620496,0.5949922,-0.4956385,0.1381366,0.8354,3.043126,21.65041,-45.28001,1001.514
2.437348366,0.5298828,-0.5002045,0.7172057,-0.4951544,0.1386969,0.8401723,3.043126,21.65041,-45.28001,1001.514
2.439845562,0.281868,-0.3809288,0.5333798,-0.494135,0.1356708,0.8301624,3.043126,21.65041,-45.28001,1001.514
2.442342758,0.1578552,-0.4403684,0.5332122,-0.493591,0.1328211,0.8340037,3.043126,21.65041,-45.28001,1001.514
2.444840431,0.4676161,-0.3806708,0.6554451,-0.494143,0.1367767,0.8401854,3.043126,21.65041,-45.28001,1001.514
2.447337627,0.6533555,-0.3209919,0.6552392,-0.4980575,0.1365767,0.8315912,3.043126,21.65041,-45.28001,1001.514
2.449834823,0.7151123,-0.2017724,0.5326329,-0.4965387,0.1337222,0.8335213,3.043126,21.65041,-45.28001,1001.514
2.452332020,0.5909635,-0.201709,0.4712654,-0.4990281,0.1360317,0.8287297,3.043126,21.65041,-45.28001,1001.514
2.454828739,0.8386262,-0.3803236,0.5935178,-0.4980763,0.137528,0.8301514,3.043126,21.65041,-45.28001,1001.512
2.457325935,0.9003248,-0.4993227,0.4709309,-0.4947861,0.1449131,0.8324851,3.043126,21.65041,-45.28001,1001.512
2.459823608,0.5282694,-0.6182843,0.470783,-0.4912286,0.1372284,0.8330156,3.043126,21.65041,-45.28001,1001.512
2.462320804,0.5281035,-0.5585309,0.5930355,-0.4922286,0.1387019,0.8358716,3.043126,21.65041,-45.28001,1001.512
2.464818001,0.2800892,-0.7370333,0.5316489,-0.4976175,0.1389428,0.8263198,3.043126,21.65041,-45.28001,1001.512
2.467315197,0.03215282,-0.6772424,0.4702817,-0.4930897,0.1324107,0.838783,3.043126,21.65041,-45.28001,1001.512
2.469812870,0.4039153,-0.5579111,0.5313342,-0.4897276,0.135338,0.8344611,3.043126,21.65041,-45.28001,1001.512
2.472310066,0.8994851,-0.3194986,0.6535677,-0.4975563,0.1355522,0.8268216,3.043126,21.65041,-45.28001,1001.512
2.474807262,0.8992025,-0.7363133,0.6533623,-0.4941346,0.1356772,0.83064,3.043126,21.65041,-45.28001,1001.512
2.477304458,0.5891096,-0.4978448,0.6531571,-0.4926118,0.1328807,0.8368686,3.043126,21.65041,-45.28001,1001.512
2.479802132,0.6508867,-0.2594512,0.6529519,-0.4932499,0.141088,0.8344222,3.043126,21.65041,-45.28001,1001.512
2.482299328,0.9604926,-0.3784883,0.5303463,-0.4946723,0.1386172,0.8334853,2.675437,21.63399,-45.72571,1001.512
2.484796524,0.8982288,-0.4379287,0.5301797,-0.4946792,0.1391282,0.8353924,2.675437,21.63399,-45.72571,1001.512
2.487293720,0.5881361,-0.2591132,0.3464126,-0.4941896,0.1391581,0.8368248,2.675437,21.63399,-45.72571,1001.512
2.489795685,0.4020651,-0.497269,0.5299044,-0.4967102,0.1434603,0.8358403,2.675437,21.63399,-45.72571,1001.512
2.492288589,0.4019387,-0.3184349,0.5297379,-0.4956641,0.139599,0.8358672,2.675437,21.63399,-45.72571,1001.512
2.494785786,0.3398504,-0.3778942,0.2847706,-0.4917198,0.1377869,0.8392215,2.675437,21.63399,-45.72571,1001.514
2.497282982,0.02993315,-0.4373347,0.2846812,-0.4950905,0.1353449,0.8435398,2.675437,21.63399,-45.72571,1001.514
2.499780655,-0.03203835,-0.3180788,0.4681924,-0.4939547,0.1260615,0.8373958,2.675437,21.63399,-45.72571,1001.514
2.502282619,0.5256305,-0.2584195,0.4680453,-0.4993862,0.1287418,0.8287819,2.675437,21.63399,-45.72571,1001.514
2.504775047,1.207049,-0.4370162,0.406698,-0.4991072,0.1403865,0.8277433,2.675437,21.63399,-45.72571,1001.514
2.507272243,0.9588209,-0.3177604,0.4065703,-0.4952018,0.1410654,0.8358565,2.675437,21.63399,-45.72571,1001.514
2.509769916,0.4008608,-0.2581012,0.4064425,-0.4946748,0.1391927,0.8401685,2.675437,21.63399,-45.72571,1001.514
2.512266159,0.2768107,-0.6153759,0.4063148,-0.4932025,0.1387196,0.838738,2.675437,21.63399,-45.72571,1001.514
2.514763832,0.4006479,-0.6151826,0.5897878,-0.4917378,0.1381369,0.829188,2.675437,21.63399,-45.72571,1001.514
2.517261028,0.5244462,-0.3767521,0.4672021,-0.4955822,0.1346751,0.8306479,2.675437,21.63399,-45.72571,1001.514
2.519758224,0.6482057,-0.1979559,0.4058551,-0.4941204,0.1358834,0.8459237,2.675437,21.63399,-45.72571,1001.514
2.522255421,0.648002,-0.07877509,0.3445274,-0.4896359,0.1305559,0.8397495,2.675437,21.63399,-45.72571,1001.514
2.524753094,0.5858364,-0.07875035,0.5280198,-0.4965194,0.1321696,0.8263674,2.675437,21.63399,-45.72571,1001.514
2.527250290,0.7715386,-0.1382849,0.5278539,-0.4947458,0.1424415,0.8291591,2.675437,21.63399,-45.72571,1001.514
2.529749393,0.5234478,-0.3764787,0.3440875,-0.4947187,0.1416127,0.8396736,2.675437,21.63399,-45.72571,1001.514
2.532244682,0.08954873,-0.3168011,0.4663798,-0.4922228,0.1387857,0.8420807,2.675602,21.64249,-45.27925,1001.514
2.534742355,0.337369,-0.197583,0.5886337,-0.4955942,0.135723,0.8363724,2.675602,21.64249,-45.27925,1001.518
2.537239551,0.4611872,-0.3761988,0.4660484,-0.4961143,0.1370847,0.8301535,2.675602,21.64249,-45.27925,1001.518
2.539736748,0.275156,-0.4356399,0.3435015,-0.4887107,0.1328874,0.8311343,2.675602,21.64249,-45.27925,1001.518
2.542233944,0.4609558,-0.2568251,0.4045938,-0.4906766,0.1332727,0.8268338,2.675602,21.64249,-45.27925,1001.518
2.544731617,0.6466973,-0.5545409,0.4044667,-0.4902962,0.139663,0.8320423,2.675602,21.64249,-45.27925,1001.518
2.547228813,0.52257,-0.3756889,0.3431394,-0.496151,0.1396078,0.8373004,2.675602,21.64249,-45.27925,1001.518
2.549726009,0.5224057,-0.1968929,0.5878325,-0.4961918,0.1420729,0.8401488,2.675602,21.64249,-45.27925,1001.518
2.552223205,0.5842037,-0.2563904,0.5264475,-0.4912858,0.140677,0.8368122,2.675602,21.64249,-45.27925,1001.518
2.554720878,0.3981339,-0.2563098,0.2202812,-0.4922125,0.137712,0.8344457,2.675602,21.64249,-45.27925,1001.518
2.557218075,0.0881984,-0.3753479,0.1590118,-0.4916586,0.1343963,0.8397233,2.675602,21.64249,-45.27925,1001.518
2.559715271,0.274057,-0.1965521,0.3425624,-0.4941306,0.1357352,0.8349385,2.675602,21.64249,-45.27925,1001.518
2.562212467,0.335933,-0.136931,0.3424548,-0.4966621,0.1404905,0.8315625,2.675602,21.64249,-45.27925,1001.518
2.564710140,0.3358274,-0.1964473,0.281147,-0.4960647,0.1347484,0.8368573,2.675602,21.64249,-45.27925,1001.518
2.567207336,0.3357219,-0.3750635,0.2810587,-0.4911934,0.1352936,0.833507,2.675602,21.64249,-45.27925,1001.518
2.569704056,0.3975785,-0.3153864,0.2809704,-0.4942123,0.1400513,0.8310865,2.675602,21.64249,-45.27925,1001.518
2.572201252,0.3974536,-0.3748466,0.3420823,-0.4922212,0.1381973,0.8344422,2.675602,21.64249,-45.27925,1001.518
2.574698448,0.3353667,-0.1960509,0.3419749,-0.495555,0.1338463,0.8411625,2.675602,21.64249,-45.27925,1001.516
2.577195644,0.1493751,-0.2555486,0.219467,-0.4903296,0.1416235,0.8334613,2.675602,21.64249,-45.27925,1001.516
2.579693317,0.1493281,-0.3150277,0.1581979,-0.4887999,0.1383159,0.837783,2.675602,21.64249,-45.27925,1001.516
2.582190514,0.2112433,-0.01713218,0.2193484,-0.4903483,0.1425747,0.8320215,2.675602,21.64249,-45.27925,1001.516
2.584687710,0.1492148,-0.0766861,0.2192795,-0.4898035,0.1397379,0.836818,2.675602,21.64249,-45.27925,1001.516
2.587184906,-0.03671831,-0.2553399,0.1580104,-0.4907389,0.1372582,0.834448,2.675602,21.64249,-45.27925,1001.516
2.589682579,0.2731037,-0.1361411,0.1579607,-0.4926857,0.1366986,0.8320649,2.675602,21.64249,-45.27925,1001.516
2.592179775,0.02516953,-0.3743355,0.0355107,-0.4946282,0.1355894,0.8249089,2.675602,21.64249,-45.27925,1001.516
2.594676971,0.02516162,-0.4337772,0.1578999,-0.4916795,0.1353153,0.8358955,2.675602,21.64249,-45.27925,1001.516
2.597174168,0.0871158,-0.254963,0.1578503,-0.4917754,0.1406471,0.8353798,2.675602,21.64249,-45.27925,1001.516
2.599671841,0.2110126,-0.1953236,0.03540035,-0.4946084,0.1352652,0.8368528,2.675602,21.64249,-45.27925,1001.516
2.602169037,0.08702214,-0.135703,0.09658942,-0.4902003,0.1343311,0.8325579,2.675602,21.64249,-45.27925,1001.516
2.604666233,0.0869948,-0.07610105,-0.02584132,-0.4936756,0.1377062,0.8363572,2.675602,21.64249,-45.27925,1001.516
2.607163429,0.08696747,-0.254755,0.0965672,-0.4921825,0.1363141,0.8387546,2.675602,21.64249,-45.27925,1001.516
2.609661102,0.08694015,-0.07599711,0.09653686,-0.4951854,0.1400819,0.8349081,2.675602,21.64249,-45.27925,1001.516
2.612158298,0.02495075,-0.07597324,0.03530633,-0.4917055,0.1367712,0.8358851,2.675602,21.64249,-45.27925,1001.516
2.614655495,0.02494291,-0.195068,0.09649544,-0.4902306,0.1363368,0.8373203,2.675602,21.64249,-45.27925,1001.518
2.617156029,-0.03702702,-0.3141253,0.1576653,-0.493282,0.1430679,0.8372741,2.675602,21.64249,-45.27925,1001.518
2.622147560,0.2108057,-0.07576559,0.2188049,-0.4931673,0.1367848,0.8392295,2.675602,21.64249,-45.27925,1001.518
2.622147560,0.2108057,-0.07576559,0.2188049,-0.4931673,0.1367848,0.8392295,2.675602,21.64249,-45.27925,1001.518
2.624644756,0.08681527,-0.1353011,0.03513559,-0.4933267,0.1454751,0.835824,2.675602,21.64249,-45.27925,1001.518
2.627141476,0.02482591,-0.1352586,-0.02607565,-0.4898587,0.1426046,0.833454,2.675602,21.64249,-45.27925,1001.518
2.632135868,-0.1610565,-0.135211,0.03514093,-0.4994826,0.1340671,0.8277886,2.681925,21.2736,-45.27282,1001.518
2.634633541,-0.03708172,-0.01604995,0.09633009,-0.4986158,0.1404421,0.8310862,2.681925,21.2736,-45.27282,1001.518
2.634633541,-0.03708172,-0.01604995,0.09633009,-0.4986158,0.1404421,0.8310862,2.681925,21.2736,-45.27282,1001.518
2.637130737,0.2107783,-0.1947228,0.1575,-0.4986006,0.1394393,0.8287051,2.681925,21.2736,-45.27282,1001.518
2.639629364,0.2726742,-0.2542209,0.1574506,-0.4995625,0.138409,0.825847,2.681925,21.2736,-45.27282,1001.518
2.644622803,-0.09921128,-0.1350175,0.03502814,-0.4917351,0.1381755,0.8320538,2.681925,21.2736,-45.27282,1001.518
2.644622803,-0.09921128,-0.1350175,0.03502814,-0.4917351,0.1381755,0.8320538,2.681925,21.2736,-45.27282,1001.518
2.647119999,-0.1611422,-0.1349751,-0.02618306,-0.4907883,0.1402086,0.837293,2.681925,21.2736,-45.27282,1001.518
2.649617195,-0.2230537,-0.07537335,-0.08737504,-0.4932695,0.1420264,0.8320272,2.681925,21.2736,-45.27282,1001.518
2.654612064,0.1487617,-0.075326,-0.0261584,-0.4936592,0.1367228,0.8354089,2.681925,21.2736,-45.27282,1001.518
2.657109260,-0.03717134,-0.01574304,0.09625022,-0.4902471,0.1373203,0.8382686,2.681925,21.2736,-45.27282,1001.52
2.659606457,-0.09912175,-0.07529739,0.09621999,-0.4932083,0.1386358,0.832529,2.681925,21.2736,-45.27282,1001.52
2.659606457,-0.09912175,-0.07529739,0.09621999,-0.4932083,0.1386358,0.832529,2.681925,21.2736,-45.27282,1001.52
2.662103653,0.2107199,-0.07527374,0.03498955,-0.4956759,0.1400392,0.8325204,2.681925,21.2736,-45.27282,1001.52
2.664601326,0.08672947,-0.1348094,-0.02622164,-0.4907705,0.1392445,0.8377775,2.681925,21.2736,-45.27282,1001.52
2.669595718,-0.03721027,-0.0751654,0.03491813,-0.4936592,0.1367228,0.8354089,2.681925,21.2736,-45.27282,1001.52
2.672092915,-0.03719858,-0.07514179,-0.2098936,-0.4931704,0.1367397,0.8358862,2.681925,21.2736,-45.27282,1001.52
2.674590588,-0.09914899,-0.07511818,-0.2098277,-0.4921974,0.1367092,0.8320645,2.681925,21.2736,-45.27282,1001.52
2.674590588,-0.09914899,-0.07511818,-0.2098277,-0.4921974,0.1367092,0.8320645,2.681925,21.2736,-45.27282,1001.52
