Packet number,Gyroscope X (deg/s),Gyroscope Y (deg/s),Gyroscope Z (deg/s),Accelerometer X (g),Accelerometer Y (g),Accelerometer Z (g),Magnetometer X (G),Magnetometer Y (G),Magnetometer Z (G)
3,-0.125,0,0.125,0.015625,0.001953125,-1.038086,0.1557617,-0.8183594,0.05175781
7,0,0,0,0.015625,0.001953125,-1.030273,0.1557617,-0.8183594,0.05175781
11,0,0.125,-0.125,0.01953125,0.001953125,-1.03418,0.1586914,-0.8212891,0.05175781
15,0,0,-0.0625,0.01171875,0.005859375,-1.038086,0.1586914,-0.8198242,0.05175781
20,-0.125,0.1875,0,0.01953125,0.001953125,-1.041992,0.1547852,-0.8212891,0.05322266
24,0.125,0,0.0625,0.015625,0.001953125,-1.03418,0.1547852,-0.8212891,0.05322266
28,0,0,-0.125,0.015625,-0.001464844,-1.038086,0.1547852,-0.8173828,0.05419922
32,0,0.0625,0.0625,0.01953125,0.005859375,-1.03418,0.1557617,-0.8198242,0.05419922
36,0.0625,-0.125,-0.0625,0.0078125,0.005859375,-1.038086,0.1557617,-0.8198242,0.05419922
40,0.1875,0,0,0.01953125,-0.001464844,-1.030273,0.1557617,-0.8173828,0.05029297
44,0.25,0,0.25,0.015625,-0.005371094,-1.030273,0.1547852,-0.8198242,0.05322266
48,0,0,0,0.01171875,0.001953125,-1.045898,0.1547852,-0.8198242,0.05322266
52,0.25,-0.0625,0,0.015625,0.005859375,-1.049805,0.1572266,-0.8198242,0.05419922
56,-0.1875,0,0,0.015625,-0.005371094,-1.045898,0.1533203,-0.8222656,0.05322266
60,-0.0625,0,0.25,0.01953125,-0.001464844,-1.049805,0.1533203,-0.8222656,0.05322266
64,0.125,0.125,0.0625,0.01953125,-0.001464844,-1.049805,0.1547852,-0.8173828,0.05175781
68,-0.0625,0.125,-0.125,0.015625,-0.001464844,-1.049805,0.1572266,-0.8183594,0.05175781
72,-0.375,0.125,0.25,0.01953125,-0.001464844,-1.041992,0.1572266,-0.8183594,0.05175781
76,-0.0625,0.3125,0.125,0.01171875,0.005859375,-1.041992,0.1572266,-0.8212891,0.05419922
80,0,0.1875,0,0.015625,-0.001464844,-1.045898,0.1547852,-0.8183594,0.05322266
84,-0.375,0.125,0,0.015625,-0.005371094,-1.041992,0.1547852,-0.8183594,0.05322266
88,-0.25,0.125,0.125,0.0234375,0.001953125,-1.038086,0.1572266,-0.8212891,0.05322266
92,-0.1875,0.125,-0.0625,0.03125,0.01367188,-1.019043,0.1572266,-0.8066406,0.05712891
96,-0.5,1,-0.125,-0.01904297,-0.02880859,-0.980957,0.1572266,-0.8066406,0.05712891
100,0,-0.9375,0.0625,0.015625,-0.01708984,-1.019043,0.1572266,-0.8183594,0.05175781
104,-0.1875,-0.3125,0,0.02734375,0.001953125,-1.068848,0.1572266,-0.8183594,0.05175781
108,-0.375,-0.25,-0.0625,0.01953125,-0.005371094,-1.072754,0.1572266,-0.8183594,0.05175781
112,-0.25,0.75,-0.1875,0.01171875,-0.005371094,-1.03418,0.1586914,-0.8198242,0.04882813
116,-0.125,-0.0625,0.0625,0.01953125,-0.001464844,-1.030273,0.1547852,-0.8212891,0.05322266
120,0.0625,-0.1875,-0.0625,0.01953125,0.001953125,-1.053711,0.1547852,-0.8212891,0.05322266
124,-0.0625,-0.1875,0.0625,0.01953125,0.005859375,-1.045898,0.1547852,-0.8183594,0.05175781
129,0.0625,0,0,0.015625,0.009765625,-1.038086,0.1557617,-0.8212891,0.05175781
133,-0.25,-0.0625,0.0625,0.015625,0.001953125,-1.038086,0.1547852,-0.8198242,0.05322266
137,-0.0625,-0.0625,-0.0625,0.01953125,0.001953125,-1.041992,0.1547852,-0.8198242,0.05322266
141,0,-0.125,0,0.01953125,0.005859375,-1.045898,0.1547852,-0.8183594,0.05322266
145,0,-0.0625,0,0.01953125,0.001953125,-1.038086,0.1557617,-0.8212891,0.05322266
149,0,-0.1875,0.125,0.015625,-0.001464844,-1.030273,0.1557617,-0.8212891,0.05322266
153,0,-0.1875,0,0.01953125,0.001953125,-1.041992,0.1572266,-0.8183594,0.05322266
157,0.1875,-0.1875,0,0.015625,0.001953125,-1.038086,0.1572266,-0.8183594,0.05419922
161,0,-0.1875,0,0.0234375,-0.001464844,-1.038086,0.1572266,-0.8183594,0.05419922
165,0.125,-0.125,0.0625,0.015625,-0.005371094,-1.038086,0.1572266,-0.8198242,0.05566406
169,0,-0.1875,0.0625,0.01171875,0.001953125,-1.030273,0.1572266,-0.8183594,0.05419922
173,0,-0.3125,-0.0625,0.015625,0.001953125,-1.03418,0.1572266,-0.8183594,0.05419922
177,0.0625,-0.5,0.0625,0.01953125,0.001953125,-1.038086,0.1572266,-0.8198242,0.05419922
181,-0.0625,-0.1875,0,0.0078125,0.005859375,-1.041992,0.1572266,-0.8144531,0.05322266
185,0.375,-0.6875,0,0.00390625,-0.005371094,-1.03418,0.1572266,-0.8144531,0.05322266
189,0.25,-0.625,-0.0625,0.0234375,0.009765625,-1.068848,0.1611328,-0.8120117,0.04785156
193,0.0625,-0.3125,-0.0625,0.02734375,-0.005371094,-1.057129,0.1572266,-0.8183594,0.05175781
197,0.1875,0,0,0.01953125,-0.005371094,-1.026855,0.1572266,-0.8183594,0.05175781
201,0.0625,-0.1875,-0.0625,0.01171875,0.005859375,-1.030273,0.1557617,-0.8212891,0.05322266
205,0,-0.625,0,0.015625,-0.001464844,-1.041992,0.1572266,-0.8198242,0.05419922
209,0,-0.0625,-0.0625,0.01953125,0.001953125,-1.057129,0.1572266,-0.8198242,0.05419922
213,0,-0.0625,-0.0625,0.01953125,0.001953125,-1.053711,0.1586914,-0.8212891,0.05175781
217,0.0625,0,0,0.015625,-0.005371094,-1.045898,0.1557617,-0.8198242,0.05322266
221,0.0625,-0.1875,-0.0625,0.015625,0.001953125,-1.049805,0.1557617,-0.8198242,0.05322266
225,0,-0.125,0,0.015625,-0.001464844,-1.038086,0.1572266,-0.8222656,0.05175781
229,-0.0625,-0.0625,-0.25,0.015625,-0.001464844,-1.045898,0.1586914,-0.8183594,0.05029297
233,0,0,0,0.01171875,-0.001464844,-1.038086,0.1586914,-0.8183594,0.05029297
238,-0.1875,0.3125,0,0.015625,0.001953125,-1.049805,0.1557617,-0.8173828,0.05322266
242,-0.5625,0.4375,0.25,0.01953125,-0.005371094,-1.045898,0.1557617,-0.8212891,0.05322266
246,-0.375,0.5625,0,0.01953125,-0.001464844,-1.041992,0.1572266,-0.8198242,0.05175781
250,-0.3125,0.5625,0.125,0.015625,0.02148438,-1.03418,0.1572266,-0.8198242,0.05175781
254,-0.3125,0.75,0.1875,0.015625,-0.001464844,-1.038086,0.1557617,-0.8183594,0.05419922
258,-0.5625,0.5,-0.0625,0.01953125,-0.001464844,-1.038086,0.1572266,-0.8198242,0.05419922
262,-0.5625,0.6875,-0.0625,0.01953125,-0.005371094,-1.053711,0.1572266,-0.8198242,0.05419922
266,-0.5625,0.875,-0.0625,0.015625,0.005859375,-1.041992,0.1547852,-0.8198242,0.05419922
270,-0.6875,0.875,-0.0625,0.015625,-0.001464844,-1.045898,0.1547852,-0.8222656,0.05322266
274,-0.5,1.125,0,0.0234375,-0.001464844,-1.03418,0.1547852,-0.8222656,0.05322266
278,-0.8125,0.875,-0.0625,0.0234375,0.001953125,-1.041992,0.1572266,-0.8198242,0.05322266
282,-0.625,1.0625,0,0.01953125,-0.005371094,-1.049805,0.1572266,-0.8183594,0.05419922
286,-0.5625,1.0625,-0.0625,0.015625,0.001953125,-1.041992,0.1572266,-0.8183594,0.05419922
290,-0.625,0.875,0,0.01953125,0.001953125,-1.03418,0.1572266,-0.8198242,0.05419922
294,-0.6875,0.8125,-0.1875,0.01953125,0.001953125,-1.038086,0.1557617,-0.8198242,0.05322266
298,-0.5,0.75,0,0.01953125,-0.001464844,-1.030273,0.1557617,-0.8198242,0.05322266
302,-0.4375,0.5,-0.1875,0.015625,0.001953125,-1.030273,0.1557617,-0.8183594,0.05322266
306,-0.4375,0.5625,0,0.01953125,0.001953125,-1.022949,0.1572266,-0.8198242,0.05175781
310,-0.4375,0.5,-0.1875,0.01953125,0.001953125,-1.026855,0.1572266,-0.8198242,0.05175781
314,-0.3125,0.4375,0,0.01953125,0.005859375,-1.026855,0.1572266,-0.8183594,0.05322266
318,-0.0625,0.0625,0,0.01953125,0.001953125,-1.03418,0.1572266,-0.8198242,0.05175781
322,-0.125,0.25,-0.0625,0.015625,0.005859375,-1.038086,0.1572266,-0.8198242,0.05175781
326,-0.0625,0.1875,0.0625,0.01171875,0.009765625,-1.03418,0.1547852,-0.8222656,0.05419922
330,-0.125,0,0,0.015625,0.001953125,-1.045898,0.1572266,-0.8212891,0.05322266
334,0.125,0.0625,0,0.01953125,-0.001464844,-1.038086,0.1572266,-0.8212891,0.05322266
338,0.125,0.1875,-0.0625,0.015625,0.005859375,-1.038086,0.1547852,-0.8198242,0.05419922
342,0,0.0625,0,0.015625,-0.001464844,-1.038086,0.1557617,-0.8173828,0.05322266
347,0.375,0.125,0.125,0.015625,0.01367188,-1.030273,0.1586914,-0.8173828,0.05175781
351,-0.125,-0.1875,0,0.0234375,0.005859375,-1.030273,0.1586914,-0.8173828,0.05175781
355,-0.0625,-0.1875,0.0625,0.015625,-0.001464844,-1.038086,0.1572266,-0.8173828,0.05029297
359,0.125,0,0.125,0.015625,-0.001464844,-1.038086,0.1572266,-0.8212891,0.05029297
363,0.1875,0.125,-0.0625,0.0078125,0.001953125,-1.038086,0.1572266,-0.8212891,0.05029297
367,0,0.0625,0,0.015625,0.005859375,-1.03418,0.1557617,-0.8183594,0.05322266
371,0.125,-0.125,-0.125,0.015625,0.005859375,-1.041992,0.1557617,-0.8222656,0.05175781
375,-0.1875,0,-0.0625,0.0234375,-0.001464844,-1.03418,0.1557617,-0.8222656,0.05175781
379,0.0625,-0.0625,-0.0625,0.015625,-0.005371094,-1.03418,0.1572266,-0.8198242,0.05175781
383,-0.0625,0.0625,0,0.01953125,0.001953125,-1.03418,0.1547852,-0.8183594,0.05566406
387,0,0.0625,0.1875,0.02734375,0.001953125,-1.026855,0.1547852,-0.8183594,0.05566406
391,0,-0.125,0.125,0.01953125,0.005859375,-1.030273,0.1557617,-0.8183594,0.05322266
395,-0.25,-0.125,0.0625,0.01953125,-0.001464844,-1.038086,0.1547852,-0.8198242,0.05419922
399,0,0.125,0,0.01953125,0.001953125,-1.041992,0.1547852,-0.8198242,0.05419922
403,0.0625,-0.125,0.125,0.01953125,0.009765625,-1.041992,0.1572266,-0.8183594,0.05322266
407,0.1875,0,0,0.015625,0.005859375,-1.038086,0.1547852,-0.8212891,0.05566406
411,0,0.0625,0.0625,0.015625,-0.001464844,-1.03418,0.1547852,-0.8212891,0.05566406
415,-0.1875,0.125,0,0.01953125,0.001953125,-1.041992,0.1557617,-0.8183594,0.05322266
419,0,-0.0625,0,0.01953125,0.005859375,-1.038086,0.1547852,-0.8198242,0.05566406
423,-0.0625,0,-0.0625,0.01171875,-0.005371094,-1.045898,0.1547852,-0.8198242,0.05566406
427,0.125,0,0,0.015625,0.005859375,-1.045898,0.1547852,-0.8198242,0.05175781
431,0,0,0,0.015625,0.005859375,-1.041992,0.1533203,-0.8198242,0.05419922
435,0,0.25,0.0625,0.015625,0.001953125,-1.041992,0.1533203,-0.8198242,0.05419922
439,0.0625,0.0625,0,0.0234375,0.001953125,-1.030273,0.1547852,-0.8198242,0.05029297
443,0,-0.0625,-0.0625,0.03125,0.001953125,-1.030273,0.1572266,-0.8212891,0.05322266
447,0,-0.0625,0,0.01953125,0.001953125,-1.045898,0.1572266,-0.8212891,0.05322266
451,0,-0.125,0,0.01953125,0.001953125,-1.03418,0.1572266,-0.8212891,0.05029297
456,0,-0.0625,0.1875,0.015625,-0.005371094,-1.041992,0.1572266,-0.8198242,0.05175781
460,0,0,0.0625,0.01953125,-0.001464844,-1.041992,0.1572266,-0.8183594,0.05175781
464,0.125,-0.0625,0.0625,0.03125,0.001953125,-1.030273,0.1572266,-0.8183594,0.05175781
468,0.125,0,0,0.01953125,0.001953125,-1.038086,0.1547852,-0.8212891,0.05175781
472,-0.0625,0,0,0.01953125,0.005859375,-1.038086,0.1557617,-0.8173828,0.05322266
476,0,0,0.125,0.015625,0.009765625,-1.041992,0.1557617,-0.8173828,0.05322266
480,0.0625,0,-0.125,0.015625,0.001953125,-1.038086,0.1557617,-0.8173828,0.05322266
484,-0.0625,0,0,0.01953125,-0.001464844,-1.03418,0.1572266,-0.8198242,0.05175781
488,0.0625,0,-0.125,0.02734375,0.001953125,-1.03418,0.1572266,-0.8198242,0.05175781
492,0,0,0.125,0.01953125,0.001953125,-1.038086,0.1572266,-0.8222656,0.05175781
496,0,0,0.0625,0.015625,-0.005371094,-1.03418,0.1547852,-0.8183594,0.05322266
500,-0.125,0.1875,0,0.01171875,-0.001464844,-1.041992,0.1547852,-0.8183594,0.05322266
504,0,-0.125,-0.125,0.015625,0.005859375,-1.038086,0.1557617,-0.8183594,0.05322266
508,-0.125,0,0,0.0234375,-0.001464844,-1.03418,0.1547852,-0.8212891,0.05419922
512,0,-0.125,0.0625,0.015625,0.001953125,-1.030273,0.1547852,-0.8212891,0.05419922
516,0,0,0,0.01953125,0.005859375,-1.030273,0.1547852,-0.8198242,0.05322266
520,-0.1875,0,0.1875,0.015625,0.005859375,-1.030273,0.1572266,-0.8198242,0.05175781
524,-0.0625,0.125,0.0625,0.01953125,0.001953125,-1.03418,0.1572266,-0.8198242,0.05175781
528,0,0.125,0.0625,0.0234375,0.005859375,-1.041992,0.1572266,-0.8212891,0.05175781
532,-0.0625,-0.125,0.0625,0.01953125,0.005859375,-1.030273,0.1547852,-0.8212891,0.05175781
536,0,-0.125,0.0625,0.01953125,0.005859375,-1.03418,0.1547852,-0.8212891,0.05175781
540,0,0,0,0.015625,0.009765625,-1.045898,0.1547852,-0.8222656,0.05322266
544,-0.0625,0.125,0.0625,0.01953125,-0.001464844,-1.041992,0.1557617,-0.8183594,0.05175781
548,-0.0625,0,0,0.01953125,0.005859375,-1.038086,0.1557617,-0.8183594,0.05175781
552,0.1875,-0.0625,-0.0625,0.01953125,0.001953125,-1.038086,0.1572266,-0.8222656,0.05029297
556,0.125,0,-0.125,0.01953125,0.001953125,-1.03418,0.1547852,-0.8212891,0.05322266
560,0.0625,0,0,0.01953125,0.001953125,-1.038086,0.1547852,-0.8212891,0.05322266
565,-0.125,0,0.0625,0.01171875,0.005859375,-1.03418,0.1547852,-0.8183594,0.05175781
569,0,0.0625,0,0.01953125,0.005859375,-1.03418,0.1557617,-0.8198242,0.05322266
573,0,-0.125,0,0.015625,0.001953125,-1.03418,0.1572266,-0.8198242,0.05322266
577,0,0,0.125,0.015625,0.001953125,-1.045898,0.1572266,-0.8198242,0.05322266
581,0.0625,0.125,-0.0625,0.0234375,0.001953125,-1.038086,0.1533203,-0.8212891,0.05322266
585,-0.0625,0.125,-0.0625,0.0234375,-0.005371094,-1.03418,0.1557617,-0.8183594,0.05175781
589,0.0625,-0.0625,0,0.015625,-0.001464844,-1.041992,0.1557617,-0.8183594,0.05175781
593,0.0625,0,0.0625,0.01953125,-0.001464844,-1.038086,0.1557617,-0.8183594,0.05322266
597,0,-0.1875,0.125,0.015625,0.001953125,-1.03418,0.1547852,-0.8237305,0.05419922
601,0,0,0,0.01953125,0.001953125,-1.041992,0.1547852,-0.8237305,0.05419922
605,0,0,0.0625,0.015625,0.001953125,-1.038086,0.1557617,-0.8183594,0.05029297
609,-0.0625,0,0,0.01953125,0.005859375,-1.041992,0.1557617,-0.8198242,0.05419922
613,0.0625,0.0625,-0.125,0.015625,0.001953125,-1.038086,0.1557617,-0.8198242,0.05419922
617,0,-0.0625,0,0.01953125,0.001953125,-1.049805,0.1557617,-0.8222656,0.05322266
621,0.0625,0.0625,0.0625,0.01953125,0.001953125,-1.045898,0.1547852,-0.8183594,0.05322266
625,0,-0.0625,0,0.01953125,0.009765625,-1.041992,0.1547852,-0.8183594,0.05322266
629,-0.0625,0,0,0.01953125,0.005859375,-1.038086,0.1557617,-0.8183594,0.05322266
633,0,-0.125,0.0625,0.015625,0.001953125,-1.041992,0.1557617,-0.8198242,0.05419922
637,0.0625,0,-0.0625,0.01953125,-0.001464844,-1.03418,0.1557617,-0.8198242,0.05419922
641,-0.125,0.125,0.125,0.0234375,0.005859375,-1.030273,0.1547852,-0.8198242,0.05175781
645,0,0.1875,0.0625,0.015625,0.001953125,-1.030273,0.1557617,-0.8212891,0.05322266
649,0.0625,0,-0.125,0.0234375,-0.001464844,-1.026855,0.1557617,-0.8212891,0.05322266
653,-0.125,0,-0.0625,0.0234375,0.001953125,-1.038086,0.1533203,-0.8198242,0.05322266
657,-0.125,-0.0625,0.0625,0.01953125,0.001953125,-1.053711,0.1572266,-0.8212891,0.05322266
661,-0.0625,-0.0625,0,0.01953125,0.001953125,-1.038086,0.1572266,-0.8212891,0.05322266
665,0,0.0625,-0.0625,0.015625,0.005859375,-1.041992,0.1572266,-0.8198242,0.05175781
669,0,-0.0625,-0.0625,0.015625,0.001953125,-1.038086,0.1557617,-0.8183594,0.05029297
674,0.0625,0,-0.0625,0.01953125,0.001953125,-1.030273,0.1547852,-0.8198242,0.05419922
678,0,-0.25,-0.0625,0.015625,0.005859375,-1.03418,0.1547852,-0.8198242,0.05419922
682,0,0,-0.1875,0.01953125,0.001953125,-1.041992,0.1572266,-0.8183594,0.05419922
686,0,-0.0625,-0.0625,0.01953125,0.009765625,-1.038086,0.1557617,-0.8183594,0.05322266
690,-0.25,-0.125,-0.0625,0.015625,0.001953125,-1.038086,0.1557617,-0.8183594,0.05322266
694,0.125,0.0625,-0.1875,0.0234375,0.005859375,-1.053711,0.1557617,-0.8212891,0.05175781
698,0,-0.125,-0.0625,0.01953125,-0.001464844,-1.049805,0.1547852,-0.8198242,0.05322266
702,0,0,-0.0625,0.01171875,0.009765625,-1.045898,0.1547852,-0.8198242,0.05322266
706,0.0625,-0.0625,0.1875,0.01953125,0.001953125,-1.041992,0.1572266,-0.8198242,0.05419922
710,0,-0.0625,0,0.01953125,0.005859375,-1.041992,0.1557617,-0.8183594,0.05566406
714,-0.1875,-0.25,0,0.0234375,0.005859375,-1.041992,0.1557617,-0.8183594,0.05566406
718,-0.0625,-0.1875,0,0.01953125,0.009765625,-1.038086,0.1557617,-0.8212891,0.05322266
722,0,0,0.125,0.015625,0.001953125,-1.038086,0.1547852,-0.8198242,0.05175781
726,-0.1875,0,-0.0625,0.015625,0.005859375,-1.030273,0.1547852,-0.8198242,0.05175781
730,0,0,0.0625,0.015625,-0.005371094,-1.041992,0.1557617,-0.8212891,0.05175781
734,0,-0.125,0,0.0234375,0.001953125,-1.030273,0.1557617,-0.8183594,0.05419922
738,-0.125,0,-0.125,0.01171875,-0.001464844,-1.041992,0.1557617,-0.8183594,0.05419922
742,0,0.1875,0.0625,0.01953125,0.005859375,-1.049805,0.1533203,-0.8198242,0.05175781
746,0.0625,0,0.0625,0.0234375,0.005859375,-1.038086,0.1572266,-0.8198242,0.05029297
750,0,0,-0.125,0.01953125,0.001953125,-1.03418,0.1572266,-0.8198242,0.05029297
754,0,0,0,0.015625,0.001953125,-1.041992,0.1557617,-0.8198242,0.05175781
758,0.0625,0.125,-0.0625,0.015625,0.001953125,-1.049805,0.1572266,-0.8198242,0.05322266
762,0.0625,-0.0625,-0.0625,0.0234375,-0.001464844,-1.045898,0.1572266,-0.8198242,0.05322266
766,0,0.0625,0,0.015625,0.001953125,-1.041992,0.1557617,-0.8212891,0.05322266
770,0,0.125,0,0.015625,-0.001464844,-1.030273,0.1572266,-0.8198242,0.05419922
774,-0.0625,0.1875,0,0.01953125,0.005859375,-1.030273,0.1572266,-0.8198242,0.05419922
778,-0.125,0,0.0625,0.01953125,0.001953125,-1.03418,0.1557617,-0.8183594,0.05322266
783,0.125,0.0625,0,0.015625,-0.001464844,-1.038086,0.1557617,-0.8183594,0.05322266
787,0.125,-0.0625,0,0.0234375,-0.001464844,-1.030273,0.1557617,-0.8198242,0.05322266
791,-0.125,0,0.125,0.015625,0.001953125,-1.03418,0.1557617,-0.8198242,0.05322266
795,0.0625,0,-0.125,0.01953125,0.005859375,-1.038086,0.1547852,-0.8212891,0.05419922
799,-0.125,0,0,0.01171875,0.009765625,-1.03418,0.1572266,-0.8198242,0.05419922
803,0,-0.1875,-0.0625,0.015625,0.005859375,-1.038086,0.1572266,-0.8198242,0.05419922
807,0,0.1875,0.0625,0.01953125,-0.001464844,-1.041992,0.1572266,-0.8198242,0.05566406
811,-0.125,-0.0625,0.0625,0.015625,0.009765625,-1.03418,0.1572266,-0.8198242,0.05419922
815,0.125,0,0.125,0.01953125,0.005859375,-1.026855,0.1572266,-0.8198242,0.05419922
819,0.0625,-0.25,-0.0625,0.015625,0.001953125,-1.03418,0.1572266,-0.8212891,0.05322266
823,-0.125,-0.0625,-0.0625,0.01953125,0.005859375,-1.038086,0.1572266,-0.8198242,0.05175781
827,0,0,0,0.015625,0.005859375,-1.049805,0.1572266,-0.8198242,0.05175781
831,0,-0.125,-0.0625,0.015625,0.001953125,-1.049805,0.1572266,-0.8183594,0.05419922
835,0,0,-0.125,0.01171875,0.001953125,-1.03418,0.1547852,-0.8212891,0.05175781
839,0,-0.1875,0.1875,0.01953125,0.001953125,-1.038086,0.1547852,-0.8212891,0.05175781
843,-0.1875,-0.3125,-0.1875,0.015625,-0.001464844,-1.038086,0.1557617,-0.8212891,0.05322266
847,-0.4375,-1,-0.25,0.015625,0.009765625,-1.038086,0.1557617,-0.8183594,0.05175781
851,-0.625,-1.625,-0.25,0.0234375,-0.001464844,-1.03418,0.1557617,-0.8183594,0.05175781
855,-0.9375,-1.9375,-0.25,0.01953125,-0.001464844,-1.03418,0.1572266,-0.8183594,0.05175781
859,-0.6875,-2.1875,-0.375,0.01953125,-0.005371094,-1.041992,0.1572266,-0.8183594,0.05322266
863,-0.9375,2.25,-11.8125,0.2495117,0.1894531,-0.9462891,0.1572266,-0.8183594,0.05322266
867,4.125,3.625,-54.5,0.3198242,-0.06787109,-1.137695,0.1572266,-0.8212891,0.05029297
871,-1.875,-2.625,-73.5625,0.2026367,0.005859375,-1.026855,0.1611328,-0.8237305,0.05029297
875,1.125,-2.375,-84.5,0.08203125,-0.01708984,-1.064941,0.1611328,-0.8237305,0.05029297
879,2.3125,3.6875,-71.9375,-0.03466797,-0.2788086,-0.984375,0.1748047,-0.8291016,0.04785156
883,-5.0625,-12,-15.25,-0.2529297,-0.3608398,-1.222168,0.1860352,-0.8344727,0.04345703
887,-5.5,-5.75,32.125,-0.2026367,-0.1420898,-0.9233398,0.1860352,-0.8344727,0.04345703
892,-3.25,4.6875,19,-0.01513672,-0.08349609,-1.118652,0.1958008,-0.8422852,0.03808594
896,-8.6875,10.625,18.8125,0.03515625,-0.06787109,-1.114746,0.2021484,-0.8476563,0.03417969
900,-13.1875,20.1875,19.375,0.09326172,-0.06396484,-0.9692383,0.2055664,-0.8452148,0.03417969
904,-21.4375,31.1875,21.125,0.08935547,-0.02490234,-1.01123,0.2055664,-0.8452148,0.03417969
908,-31.5,34.375,24.375,0.0234375,0.02148438,-1.382813,0.2109375,-0.8515625,0.03271484
912,-38,51.4375,31.625,0.05859375,-0.03662109,-1.122559,0.2207031,-0.8530273,0.03027344
916,-47.4375,70.5,39.1875,0.07421875,-0.03662109,-1.156738,0.2207031,-0.8530273,0.03027344
920,-56.1875,85.5,44.9375,0.04296875,-0.02880859,-1.386719,0.2294922,-0.859375,0.02783203
924,-58.9375,82.0625,46.75,-0.01513672,-0.03271484,-1.643066,0.2392578,-0.8608398,0.03271484
928,-57.8125,64.5625,46.4375,-0.06982422,-0.07177734,-1.830566,0.2392578,-0.8608398,0.03271484
932,-52.8125,37.8125,44.75,-0.08544922,-0.1069336,-1.983887,0.2543945,-0.8676758,0.03955078
936,-45.9375,4.6875,42.6875,-0.08544922,-0.1147461,-2.048828,0.2719727,-0.8754883,0.0625
940,-40.5,-28.375,39,-0.05029297,-0.1069336,-2.071777,0.2719727,-0.8754883,0.0625
944,-37.625,-52.5625,35.25,0.00390625,-0.1108398,-1.999023,0.2915039,-0.8823242,0.09716797
948,-37.625,-66.8125,32.4375,0.05078125,-0.1342773,-1.895996,0.3217773,-0.8862305,0.1411133
952,-38.5,-73.5625,31.5,0.1010742,-0.1616211,-1.79248,0.3217773,-0.8862305,0.1411133
956,-38.6875,-77.25,32.25,0.128418,-0.1850586,-1.708008,0.3491211,-0.8886719,0.199707
960,-38.375,-80.9375,35,0.1323242,-0.2006836,-1.646973,0.3725586,-0.8886719,0.2666016
964,-36.5,-84.5625,39,0.1362305,-0.2124023,-1.593262,0.3725586,-0.8886719,0.2666016
968,-34.25,-86.625,43.5,0.1401367,-0.2163086,-1.55127,0.4013672,-0.8886719,0.3374023
972,-31.375,-87.875,48.0625,0.1362305,-0.2163086,-1.520508,0.4238281,-0.8769531,0.4135742
976,-28.5625,-90.625,52.1875,0.1323242,-0.2163086,-1.509277,0.4238281,-0.8769531,0.4135742
980,-25.875,-87.4375,54.8125,0.1245117,-0.2006836,-1.497559,0.4399414,-0.859375,0.4912109
984,-22.75,-89.125,56.875,0.1088867,-0.1928711,-1.497559,0.4472656,-0.8369141,0.5673828
988,-18.625,-88.4375,57.3125,0.112793,-0.1655273,-1.520508,0.4472656,-0.8369141,0.5673828
992,-14.25,-88.5625,55.8125,0.112793,-0.1381836,-1.55127,0.4487305,-0.8027344,0.6381836
996,-9.8125,-90.8125,53.625,0.1010742,-0.1186523,-1.5625,0.4384766,-0.765625,0.7050781
1001,23.875,-106.5625,47.875,0.01953125,-0.06396484,-1.582031,0.3178711,-0.5366211,0.8798828
1005,27.875,-110.0625,47.3125,0.015625,-0.04443359,-1.570313,0.3178711,-0.5366211,0.8798828
1009,31.5,-112.9375,46.375,0.015625,-0.03271484,-1.555176,0.277832,-0.4741211,0.8891602
1013,34.875,-115.9375,45.6875,0.01171875,-0.03271484,-1.536133,0.2304688,-0.4145508,0.8935547
1017,39.125,-119,44.0625,0.00390625,-0.009277344,-1.532227,0.2304688,-0.4145508,0.8935547
1021,44.4375,-121.6875,41.9375,-0.01513672,0.005859375,-1.52832,0.1894531,-0.362793,0.8891602
1025,51.125,-125.3125,38.9375,-0.02685547,0.01367188,-1.539551,0.1474609,-0.3164063,0.8774414
1029,58.875,-129.375,35.0625,-0.03466797,0.03710938,-1.532227,0.1474609,-0.3164063,0.8774414
1033,68.5625,-132.75,30.25,-0.04248047,0.04101563,-1.505371,0.1098633,-0.2783203,0.862793
1037,78.9375,-136.1875,25.875,-0.04248047,0.03710938,-1.486328,0.07617188,-0.2421875,0.8452148
1041,89.875,-138.8125,21.875,-0.04638672,0.02539063,-1.463379,0.07617188,-0.2421875,0.8452148
1045,98.6875,-141.5625,18.5,-0.03076172,0.02539063,-1.428711,0.04785156,-0.2143555,0.8266602
1049,105.75,-143.25,16.375,-0.01513672,0.02929688,-1.390625,0.02294922,-0.190918,0.8066406
1053,110.0625,-144.3125,16.9375,-0.01513672,0.02929688,-1.348145,0.02294922,-0.190918,0.8066406
1057,112,-144.75,20.6875,-0.02685547,0.04101563,-1.302246,0.001464844,-0.1723633,0.7890625
1061,111.375,-144.625,25.1875,-0.03857422,0.06054688,-1.268066,-0.015625,-0.1538086,0.7758789
1065,109.25,-144.9375,30.4375,-0.05419922,0.06445313,-1.233398,-0.015625,-0.1538086,0.7758789
1069,107,-145.375,34.9375,-0.06982422,0.09179688,-1.191406,-0.02929688,-0.140625,0.7612305
1073,104.0625,-145.25,37,-0.08154297,0.1191406,-1.145508,-0.04052734,-0.1298828,0.7490234
1077,101.5,-143.875,38,-0.09326172,0.1386719,-1.118652,-0.04052734,-0.1298828,0.7490234
1081,99.3125,-141.75,37.8125,-0.09716797,0.1621094,-1.053711,-0.04882813,-0.1220703,0.7314453
1085,96.625,-140.5,37.75,-0.1166992,0.1699219,-1.01123,-0.05517578,-0.1098633,0.7236328
1089,95.0625,-139.375,38.3125,-0.128418,0.1816406,-0.984375,-0.05517578,-0.1098633,0.7236328
1093,93,-137.9375,38.3125,-0.1401367,0.2011719,-0.9462891,-0.06152344,-0.105957,0.7167969
1097,90.0625,-136.5,38.0625,-0.1518555,0.2167969,-0.9311523,-0.06542969,-0.09912109,0.7104492
1101,87.4375,-135.1875,37.0625,-0.1518555,0.2285156,-0.8964844,-0.06542969,-0.09912109,0.7104492
1105,84,-133.8125,35.625,-0.1557617,0.2363281,-0.8774414,-0.06787109,-0.09667969,0.7011719
1110,60.8125,-123.9375,27.1875,-0.159668,0.2524414,-0.7050781,-0.07128906,-0.08203125,0.6796875
1114,56.9375,-122.5,26.125,-0.159668,0.2563477,-0.6782227,-0.06884766,-0.08105469,0.6757813
1118,54.625,-120.6875,24.125,-0.175293,0.2719727,-0.6362305,-0.06884766,-0.08105469,0.6757813
1122,52.0625,-117.25,21.5625,-0.1791992,0.2680664,-0.5942383,-0.06787109,-0.078125,0.6728516
1126,49.0625,-112.25,18.875,-0.1791992,0.2602539,-0.5634766,-0.06787109,-0.07666016,0.6704102
1130,46.1875,-107.9375,16.6875,-0.1870117,0.2363281,-0.5288086,-0.06787109,-0.07666016,0.6704102
1134,42.875,-104.0625,14.8125,-0.1870117,0.2402344,-0.5097656,-0.06640625,-0.07275391,0.6660156
1138,39.875,-100.5,12.0625,-0.190918,0.2363281,-0.4907227,-0.06542969,-0.07177734,0.6621094
1142,37.375,-96.25,10.25,-0.206543,0.2246094,-0.4599609,-0.06542969,-0.07177734,0.6621094
1146,35.5,-90.6875,8.5625,-0.2260742,0.2089844,-0.421875,-0.06396484,-0.0703125,0.6606445
1150,33.6875,-89.75,8.5,-0.2529297,0.1894531,-0.3833008,-0.06152344,-0.06738281,0.659668
1154,33.125,-84.6875,8.4375,-0.2607422,0.1855469,-0.3452148,-0.06152344,-0.06738281,0.659668
1158,32.25,-81.125,8.75,-0.2685547,0.1699219,-0.3261719,-0.06005859,-0.06738281,0.6557617
1162,31.375,-77.5,8.5,-0.2724609,0.1660156,-0.3183594,-0.05908203,-0.06494141,0.6542969
1166,30.3125,-73.625,8.0625,-0.2646484,0.1660156,-0.2802734,-0.05908203,-0.06494141,0.6542969
1170,28.25,-69.625,7.5,-0.2802734,0.1503906,-0.2573242,-0.05517578,-0.06494141,0.6542969
1174,26.375,-65.5625,6.9375,-0.2919922,0.1425781,-0.2456055,-0.05517578,-0.06640625,0.652832
1178,24.375,-61.375,6.125,-0.2919922,0.1347656,-0.21875,-0.05517578,-0.06640625,0.652832
1182,21.875,-56.4375,4.625,-0.2958984,0.1269531,-0.1918945,-0.05419922,-0.0625,0.652832
1186,20,-51.4375,3.5625,-0.2998047,0.1152344,-0.1650391,-0.05273438,-0.06103516,0.6503906
1190,18.125,-46.6875,2.1875,-0.2919922,0.1152344,-0.1459961,-0.05273438,-0.06103516,0.6503906
1194,17.1875,-40.75,0.5625,-0.2958984,0.08789063,-0.1000977,-0.05029297,-0.0625,0.6474609
1198,15.6875,-34.875,-0.875,-0.2880859,0.08398438,-0.1040039,-0.05029297,-0.0625,0.6459961
1202,15.375,-29.3125,-2.5625,-0.2919922,0.08398438,-0.08496094,-0.05029297,-0.0625,0.6459961
1206,13.625,-23.5,-4,-0.2998047,0.08007813,-0.09228516,-0.05175781,-0.06103516,0.6474609
1210,12.125,-17.6875,-5.5625,-0.2998047,0.08789063,-0.1118164,-0.05029297,-0.06103516,0.6489258
1214,10.4375,-12.875,-7.0625,-0.3154297,0.09960938,-0.1230469,-0.05029297,-0.06103516,0.6489258
1219,-9.75,13.75,-10.8125,-0.3037109,0.03710938,-0.237793,-0.05175781,-0.06103516,0.6450195
1223,-11.4375,16.25,-11.625,-0.3115234,0.03710938,-0.2495117,-0.04882813,-0.06103516,0.6450195
1227,-15.0625,19.75,-12.4375,-0.3115234,0.02539063,-0.2416992,-0.05029297,-0.0625,0.6459961
1231,-16.4375,33.3125,-12.3125,-0.2646484,-0.001464844,0.3432617,-0.05029297,-0.0625,0.6459961
1235,-18.5,25.375,-13.375,-0.2880859,0.08398438,-0.3950195,-0.05029297,-0.06103516,0.6450195
1239,-21.75,23.375,-14,-0.3310547,0.009765625,-0.2954102,-0.05175781,-0.0625,0.6450195
1243,-23.1875,25.3125,-14.6875,-0.3115234,0.02148438,-0.3374023,-0.05175781,-0.0625,0.6450195
1247,-27.5,26.4375,-16,-0.3037109,0.04101563,-0.2148438,-0.05273438,-0.06347656,0.6459961
1251,-29.8125,29.0625,-17.6875,-0.2998047,0.04882813,-0.2416992,-0.05273438,-0.06494141,0.6459961
1255,-31.375,33.8125,-18.9375,-0.2958984,0.05273438,-0.2109375,-0.05273438,-0.06494141,0.6459961
1259,-32.0625,38.3125,-19.75,-0.2998047,0.05664063,-0.21875,-0.05273438,-0.06738281,0.6474609
1263,-32.625,42.375,-20.0625,-0.2958984,0.04882813,-0.2226563,-0.05419922,-0.06494141,0.6489258
1267,-32.375,46.375,-20.4375,-0.2958984,0.05273438,-0.2265625,-0.05419922,-0.06494141,0.6489258
1271,-32.125,50.4375,-20.25,-0.2998047,0.05273438,-0.234375,-0.05517578,-0.06884766,0.6489258
1275,-32.5625,53.625,-20.375,-0.2880859,0.04882813,-0.2573242,-0.05761719,-0.0703125,0.6513672
1279,-33.3125,56.125,-20.8125,-0.2802734,0.04492188,-0.2915039,-0.05761719,-0.0703125,0.6513672
1283,-34.375,59.0625,-20.75,-0.2763672,0.04882813,-0.3105469,-0.05761719,-0.07177734,0.6513672
1287,-35.5,61.5,-20.25,-0.2763672,0.04101563,-0.3603516,-0.05908203,-0.07568359,0.6513672
1291,-36.625,64.125,-19.1875,-0.2646484,0.03710938,-0.3989258,-0.05908203,-0.07568359,0.6513672
1295,-38,66.3125,-18.3125,-0.2607422,0.02929688,-0.4487305,-0.06152344,-0.07275391,0.6557617
1299,-39.6875,68.375,-17.5,-0.2646484,0.03320313,-0.4985352,-0.0625,-0.07666016,0.6542969
1303,-42.0625,69.0625,-16.4375,-0.2607422,0.03710938,-0.5556641,-0.0625,-0.07666016,0.6542969
1307,-44.9375,68.8125,-15.5625,-0.2607422,0.03320313,-0.628418,-0.0625,-0.08105469,0.6557617
1311,-49.375,67.125,-14.4375,-0.2607422,0.03320313,-0.6821289,-0.06542969,-0.08105469,0.6567383
1315,-55,64.625,-13.125,-0.2685547,0.02539063,-0.7241211,-0.06542969,-0.08105469,0.6567383
1319,-61,61.5,-12,-0.2646484,0.02148438,-0.7548828,-0.06542969,-0.08349609,0.6567383
1323,-67.1875,58.25,-10.3125,-0.2685547,0.01757813,-0.7626953,-0.06542969,-0.0859375,0.6621094
1328,-88.125,54.3125,-7.3125,-0.2338867,0.06054688,-0.6513672,-0.06640625,-0.1044922,0.6704102
1332,-87.6875,58.0625,-8.0625,-0.2260742,0.07226563,-0.6401367,-0.06640625,-0.1044922,0.6704102
1336,-86,62.75,-8.875,-0.222168,0.08789063,-0.6171875,-0.06640625,-0.1113281,0.6704102
1340,-81.4375,68.5,-10.3125,-0.2104492,0.09960938,-0.6245117,-0.06640625,-0.1166992,0.6743164
1344,-76.25,73.875,-12.1875,-0.2104492,0.09960938,-0.6362305,-0.06640625,-0.1166992,0.6743164
1348,-70.8125,78.75,-13.625,-0.2143555,0.1113281,-0.6972656,-0.06640625,-0.1206055,0.6757813
1352,-65.5,82.3125,-13.6875,-0.2182617,0.1191406,-0.7661133,-0.06884766,-0.1245117,0.6782227
1356,-61.125,84.8125,-13.1875,-0.2182617,0.1230469,-0.8544922,-0.06884766,-0.1245117,0.6782227
1360,-57.5625,86.75,-12.875,-0.222168,0.1191406,-0.9194336,-0.06640625,-0.1298828,0.6821289
1364,-54.625,88.125,-13.75,-0.2182617,0.1230469,-1.003906,-0.06640625,-0.1376953,0.6860352
1368,-52.5,87.5,-15.0625,-0.222168,0.1230469,-1.095703,-0.06640625,-0.1376953,0.6860352
1372,-51.5625,85.25,-16.5,-0.2299805,0.1230469,-1.191406,-0.06542969,-0.1430664,0.6904297
1376,-51.375,82,-18.125,-0.2416992,0.1074219,-1.291016,-0.06396484,-0.1508789,0.6943359
1380,-51.6875,77.6875,-18.625,-0.2456055,0.08398438,-1.352051,-0.06396484,-0.1508789,0.6943359
1384,-52.3125,72.4375,-18.375,-0.2416992,0.06445313,-1.394043,-0.06396484,-0.1591797,0.6967773
1388,-53.5,65.5625,-16.875,-0.2456055,0.04882813,-1.455566,-0.0625,-0.1694336,0.7021484
1392,-54.9375,57.75,-15,-0.2495117,0.02929688,-1.501465,-0.0625,-0.1694336,0.7021484
1396,-55.6875,49.625,-12.625,-0.2456055,-0.001464844,-1.520508,-0.06152344,-0.1787109,0.7060547
1400,-56.5625,42.4375,-10.3125,-0.2456055,-0.02099609,-1.509277,-0.05761719,-0.1879883,0.7060547
1404,-57.5,36.125,-7.875,-0.2529297,-0.05615234,-1.489746,-0.05761719,-0.1879883,0.7060547
1408,-58.625,31.125,-5.4375,-0.2416992,-0.07568359,-1.439941,-0.05517578,-0.2001953,0.7089844
1412,-60.8125,27.8125,-3.8125,-0.2456055,-0.07958984,-1.405762,-0.05175781,-0.2119141,0.7114258
1416,-63.125,26.125,-2.5,-0.2299805,-0.08349609,-1.317871,-0.05175781,-0.2119141,0.7114258
1420,-65.5625,26.375,-1.0625,-0.2104492,-0.07958984,-1.248535,-0.05029297,-0.2226563,0.7104492
1424,-66.5,28.8125,1.5,-0.2143555,-0.07568359,-1.202637,-0.04638672,-0.2373047,0.7104492
1428,-65.9375,32.8125,5,-0.2338867,-0.07568359,-1.141602,-0.04638672,-0.2373047,0.7104492
1432,-64.25,37.875,8.75,-0.2529297,-0.06787109,-1.103027,-0.04638672,-0.2514648,0.7075195
1437,-48.5625,51.8125,3.9375,-0.3427734,0.02539063,-1.175781,-0.04296875,-0.3125,0.6914063
1441,-44.375,51.3125,1.5,-0.3466797,0.02148438,-1.214355,-0.04541016,-0.3256836,0.6860352
1445,-39.625,50.4375,-0.6875,-0.3427734,0.02148438,-1.245117,-0.04541016,-0.3256836,0.6860352
1449,-35.1875,49.1875,-2.875,-0.3271484,0.01757813,-1.287109,-0.04541016,-0.340332,0.6782227
1453,-31.6875,48.0625,-4.6875,-0.3271484,-0.001464844,-1.333008,-0.04785156,-0.3535156,0.6660156
1457,-29,47.25,-6.125,-0.3232422,-0.005371094,-1.36377,-0.04785156,-0.3535156,0.6660156
1461,-27.6875,46,-7.5625,-0.3271484,-0.02099609,-1.378906,-0.04785156,-0.3642578,0.6557617
1465,-26.5,44.8125,-8.8125,-0.3310547,-0.02490234,-1.401855,-0.05273438,-0.3735352,0.6435547
1469,-24.8125,43.375,-10.25,-0.3349609,-0.02880859,-1.405762,-0.05273438,-0.3735352,0.6435547
1473,-23.8125,40.875,-12.25,-0.3310547,-0.04052734,-1.420898,-0.05273438,-0.3867188,0.6274414
1477,-24,38.125,-14.25,-0.3310547,-0.03662109,-1.424805,-0.05419922,-0.3920898,0.612793
1481,-23.6875,34.8125,-15.9375,-0.3349609,-0.04443359,-1.424805,-0.05419922,-0.3920898,0.612793
1485,-24.3125,32.3125,-17.375,-0.3388672,-0.05615234,-1.428711,-0.05761719,-0.3945313,0.6005859
1489,-25.125,30.4375,-18.6875,-0.3388672,-0.06787109,-1.405762,-0.0625,-0.4013672,0.5859375
1493,-26.625,28.625,-19.5625,-0.3310547,-0.07958984,-1.390625,-0.0625,-0.4013672,0.5859375
1497,-27.4375,27.5,-19.5625,-0.3271484,-0.1108398,-1.375,-0.06542969,-0.4052734,0.5727539
1501,-28.5625,27.125,-18.875,-0.3115234,-0.1420898,-1.348145,-0.06787109,-0.402832,0.5581055
1505,-28.75,27.4375,-18.375,-0.3037109,-0.1616211,-1.336914,-0.06787109,-0.402832,0.5581055
1509,-28.125,28.3125,-18,-0.2998047,-0.1772461,-1.310059,-0.0703125,-0.4052734,0.543457
1513,-26.6875,29.5625,-17.8125,-0.3037109,-0.1850586,-1.302246,-0.07275391,-0.4038086,0.5297852
1517,-24.5625,30.625,-18.125,-0.3076172,-0.1928711,-1.302246,-0.07275391,-0.4038086,0.5297852
1521,-21.625,31.5,-18,-0.3076172,-0.1811523,-1.313965,-0.07519531,-0.4052734,0.5205078
1525,-18.5,31.875,-18.1875,-0.2958984,-0.1733398,-1.317871,-0.07763672,-0.4013672,0.5058594
1529,-15,32.125,-18.8125,-0.3037109,-0.1616211,-1.329102,-0.07763672,-0.4013672,0.5058594
1533,-11.625,32.125,-19.75,-0.3037109,-0.1381836,-1.333008,-0.07910156,-0.4013672,0.4980469
1537,-9.3125,32.5,-20.6875,-0.2880859,-0.1225586,-1.359863,-0.08007813,-0.3984375,0.4858398
1541,-7.1875,32.625,-21.5,-0.2841797,-0.1069336,-1.371094,-0.08007813,-0.3984375,0.4858398
1546,9.0625,16.5,-25.125,-0.2802734,-0.1186523,-1.63916,-0.08398438,-0.3945313,0.4619141
1550,14.3125,10.875,-27.0625,-0.2763672,-0.1420898,-1.662109,-0.08496094,-0.3935547,0.4580078
1554,19.625,4.8125,-28.125,-0.2607422,-0.1733398,-1.688965,-0.08251953,-0.3935547,0.456543
1558,24.8125,-1.125,-27.9375,-0.237793,-0.2163086,-1.696777,-0.08251953,-0.3935547,0.456543
1562,29.0625,-6.625,-26.125,-0.2143555,-0.2319336,-1.688965,-0.08251953,-0.3920898,0.4580078
1566,33.1875,-10.6875,-23.5,-0.1987305,-0.2592773,-1.685059,-0.08007813,-0.3935547,0.4589844
1570,37.3125,-13.75,-20.3125,-0.1831055,-0.2631836,-1.669922,-0.08007813,-0.3935547,0.4589844
1574,40.25,-16.4375,-16.3125,-0.1674805,-0.2670898,-1.677734,-0.07763672,-0.3935547,0.4658203
1578,42.875,-19.125,-12.8125,-0.1635742,-0.2553711,-1.688965,-0.07519531,-0.3945313,0.4711914
1582,44.5,-22.0625,-9.5,-0.1870117,-0.2436523,-1.708008,-0.07519531,-0.3945313,0.4711914
1586,45.625,-25.9375,-6.625,-0.206543,-0.2358398,-1.71582,-0.0703125,-0.3974609,0.4804688
1590,45.75,-30.75,-5.25,-0.2026367,-0.2241211,-1.719727,-0.06640625,-0.3984375,0.4897461
1594,45.5625,-36.3125,-5.125,-0.2026367,-0.1967773,-1.700684,-0.06640625,-0.3984375,0.4897461
1598,43.8125,-41.4375,-4.6875,-0.1987305,-0.1733398,-1.685059,-0.06152344,-0.4013672,0.503418
1602,41.75,-45.75,-4.0625,-0.2104492,-0.1420898,-1.658203,-0.05761719,-0.3984375,0.5151367
1606,39.875,-49.5,-3.25,-0.2299805,-0.1342773,-1.646973,-0.05761719,-0.3984375,0.5151367
1610,37.5625,-53.5625,-2.8125,-0.2456055,-0.1108398,-1.62793,-0.05175781,-0.3974609,0.5297852
1614,35.5625,-58.3125,-3.875,-0.2299805,-0.06005859,-1.593262,-0.04638672,-0.3984375,0.5458984
1618,34.625,-63.75,-6.5625,-0.2182617,-0.02490234,-1.559082,-0.04638672,-0.3984375,0.5458984
1622,35.25,-68.75,-9.4375,-0.2182617,0.009765625,-1.505371,-0.0390625,-0.3945313,0.5634766
1626,36.375,-72.6875,-10.9375,-0.2260742,0.02539063,-1.443848,-0.03417969,-0.3881836,0.5805664
1630,37.3125,-75.75,-11.875,-0.2416992,0.04101563,-1.401855,-0.03417969,-0.3881836,0.5805664
1634,38.8125,-78.3125,-12.6875,-0.2495117,0.07226563,-1.355957,-0.02929688,-0.3813477,0.5942383
1638,40.0625,-81.0625,-14,-0.2495117,0.1035156,-1.333008,-0.02294922,-0.3696289,0.6074219
1642,41.0625,-83.9375,-15.625,-0.2568359,0.1308594,-1.321289,-0.02294922,-0.3696289,0.6074219
1646,41.6875,-86.875,-17.9375,-0.2568359,0.1542969,-1.325195,-0.01806641,-0.362793,0.625
1650,42.0625,-92.4375,-20.8125,-0.2685547,0.1738281,-1.325195,-0.01416016,-0.3496094,0.6352539
1655,44.625,-107.4375,-30.0625,-0.2607422,0.09570313,-1.152832,-0.004394531,-0.2929688,0.6713867
1659,45.875,-107.625,-28.6875,-0.2495117,0.07617188,-1.11084,-0.004394531,-0.2929688,0.6713867
1663,46.625,-107.5625,-27,-0.2568359,0.06445313,-1.064941,-0.004394531,-0.2783203,0.6757813
1667,48.375,-106.0625,-25,-0.2568359,0.04882813,-0.9882813,-0.004394531,-0.2661133,0.6806641
1671,50.875,-104.1875,-22.625,-0.2607422,0.03710938,-0.9233398,-0.004394531,-0.2661133,0.6806641
1675,53.8125,-101,-20.6875,-0.2416992,0.02539063,-0.8735352,-0.005371094,-0.2529297,0.6835938
1679,57.1875,-96.1875,-19.9375,-0.222168,0.005859375,-0.8085938,-0.002929688,-0.2397461,0.6875
1683,60.8125,-89.375,-19.6875,-0.206543,-0.01708984,-0.7431641,-0.002929688,-0.2397461,0.6875
1687,65.25,-84.25,-19.0625,-0.2143555,-0.03271484,-0.6860352,-0.005371094,-0.2280273,0.6860352
1691,71.25,-76.4375,-18.4375,-0.2338867,-0.04443359,-0.6669922,-0.002929688,-0.2158203,0.6904297
1695,78.4375,-67.5,-16.9375,-0.2338867,-0.05615234,-0.6362305,-0.002929688,-0.2158203,0.6904297
1699,85.375,-59.0625,-15.25,-0.237793,-0.07177734,-0.6362305,-0.004394531,-0.206543,0.6904297
1703,91.875,-51.3125,-13.8125,-0.237793,-0.08349609,-0.6513672,-0.0078125,-0.1958008,0.6889648
1707,98.0625,-44.5,-12.1875,-0.2416992,-0.1030273,-0.7050781,-0.0078125,-0.1958008,0.6889648
1711,104.125,-39.4375,-10.9375,-0.2607422,-0.1225586,-0.7661133,-0.006835938,-0.1855469,0.6914063
1715,109.375,-35.125,-10.125,-0.2607422,-0.1342773,-0.8237305,-0.0078125,-0.1762695,0.6914063
1719,113.375,-32.1875,-10.125,-0.2646484,-0.1577148,-0.8735352,-0.0078125,-0.1762695,0.6914063
1723,115.625,-30.5625,-10.5,-0.2685547,-0.1772461,-0.9272461,-0.01025391,-0.1669922,0.6914063
1727,116.625,-30.5,-10.625,-0.2646484,-0.1733398,-0.980957,-0.01416016,-0.15625,0.6904297
1731,115.6875,-31.9375,-10.1875,-0.2724609,-0.1772461,-0.980957,-0.01416016,-0.15625,0.6904297
1735,113.875,-34.1875,-8.6875,-0.2646484,-0.1694336,-1.03418,-0.01269531,-0.1469727,0.6904297
1739,109.8125,-36.6875,-6.25,-0.2685547,-0.1694336,-1.030273,-0.01269531,-0.1391602,0.6914063
1743,104.625,-38.8125,-3.25,-0.2763672,-0.1577148,-1.03418,-0.01269531,-0.1391602,0.6914063
1747,98.5625,-40.4375,0,-0.2802734,-0.1499023,-1.019043,-0.01660156,-0.1313477,0.6914063
1751,91.9375,-42.875,2.5625,-0.2880859,-0.1264648,-1.01123,-0.01660156,-0.1230469,0.6914063
1755,85,-45.75,4.8125,-0.2958984,-0.1030273,-0.9921875,-0.01660156,-0.1230469,0.6914063
1759,78,-49.0625,7,-0.3037109,-0.09130859,-0.9770508,-0.01806641,-0.1152344,0.6904297
1764,35.875,-61.25,13.75,-0.3193359,0.03710938,-0.7548828,-0.01660156,-0.09667969,0.6850586
1768,28.375,-60.375,15.3125,-0.3271484,0.06054688,-0.7280273,-0.01660156,-0.09277344,0.6821289
1772,21.125,-59.3125,16.0625,-0.3349609,0.08007813,-0.6933594,-0.01660156,-0.09277344,0.6821289
1776,13.9375,-58.4375,15.1875,-0.3544922,0.09570313,-0.6704102,-0.01660156,-0.09130859,0.6806641
1780,7.125,-58,12.875,-0.3623047,0.1152344,-0.6669922,-0.01660156,-0.08886719,0.6796875
1784,1.3125,-57.9375,9.625,-0.3740234,0.1230469,-0.6401367,-0.01660156,-0.08886719,0.6796875
1788,-3.875,-58.4375,5.4375,-0.3818359,0.1152344,-0.6132813,-0.01660156,-0.08740234,0.6782227
1792,-8.625,-58.0625,1.6875,-0.3818359,0.1230469,-0.5864258,-0.01660156,-0.0859375,0.6728516
1796,-13.125,-55.9375,-2.125,-0.3740234,0.1386719,-0.5478516,-0.01660156,-0.0859375,0.6728516
1800,-16.3125,-52.0625,-5.4375,-0.3701172,0.1503906,-0.4985352,-0.01660156,-0.08740234,0.6728516
1804,-18.25,-47.0625,-7.8125,-0.3701172,0.1621094,-0.4521484,-0.015625,-0.0859375,0.6704102
1808,-19.375,-41.1875,-10.8125,-0.3818359,0.1738281,-0.4101563,-0.015625,-0.0859375,0.6704102
1812,-18.5,-34.5625,-14,-0.3818359,0.1894531,-0.3642578,-0.01416016,-0.0859375,0.6704102
1816,-17.1875,-28.1875,-17.4375,-0.3896484,0.1933594,-0.3491211,-0.01416016,-0.08740234,0.6689453
1820,-15.9375,-22.8125,-21.1875,-0.3974609,0.1855469,-0.3452148,-0.01416016,-0.08740234,0.6689453
1824,-14.25,-18.5,-24.625,-0.4052734,0.1855469,-0.3452148,-0.01416016,-0.08740234,0.6674805
1828,-14.0625,-14.5625,-27.8125,-0.3974609,0.1738281,-0.3564453,-0.015625,-0.08740234,0.6704102
1832,-14.25,-10.8125,-29.4375,-0.3857422,0.1621094,-0.3491211,-0.015625,-0.08740234,0.6704102
1836,-7.3125,10.5,-14.5625,-0.1362305,-0.1459961,-0.1269531,-0.01416016,-0.08740234,0.6660156
1840,-5.5,38.5,-9.375,-0.1713867,0.01757813,-0.1616211,-0.01416016,-0.08496094,0.6660156
1844,-4.9375,54.875,-5.25,-0.2802734,0.05273438,-0.3564453,-0.01416016,-0.08496094,0.6660156
1848,-6.5,58.5,-7.875,-0.3857422,0.1582031,-0.4829102,-0.01660156,-0.08740234,0.6674805
1852,-11.375,51.875,-14.6875,-0.4755859,0.2285156,-0.6206055,-0.01904297,-0.0859375,0.6674805
1856,-15.4375,40.1875,-23.1875,-0.5146484,0.2797852,-0.6669922,-0.01904297,-0.0859375,0.6674805
1860,-18.4375,28.25,-30.1875,-0.5068359,0.2915039,-0.6743164,-0.01904297,-0.08740234,0.6674805
1864,-21.375,19.3125,-34.0625,-0.4755859,0.2875977,-0.6591797,-0.02050781,-0.08740234,0.6660156
1868,-25.3125,14.875,-34.0625,-0.4404297,0.2680664,-0.628418,-0.02050781,-0.08740234,0.6660156
1873,-66.1875,28,-22.3125,-0.4208984,0.2524414,-0.6513672,-0.02294922,-0.09667969,0.6660156
1877,-70.375,26.0625,-21.75,-0.4091797,0.2441406,-0.6630859,-0.02148438,-0.09912109,0.6635742
1881,-73.25,23.6875,-22.875,-0.3935547,0.2324219,-0.6552734,-0.02685547,-0.1020508,0.6674805
1885,-74.8125,22.1875,-26.5,-0.3779297,0.2441406,-0.6362305,-0.02685547,-0.1020508,0.6674805
1889,-74.5,22.6875,-33.4375,-0.3623047,0.2719727,-0.6132813,-0.02392578,-0.105957,0.6674805
1893,-71.6875,25.0625,-41.8125,-0.3505859,0.2915039,-0.5864258,-0.02539063,-0.1098633,0.6660156
1897,-68.0625,28.75,-50.625,-0.3662109,0.2993164,-0.574707,-0.02539063,-0.1098633,0.6660156
1901,-64,32.3125,-57.875,-0.3740234,0.3110352,-0.5712891,-0.02392578,-0.1113281,0.6621094
1905,-60.25,35.5,-63.4375,-0.3974609,0.3110352,-0.574707,-0.02539063,-0.1166992,0.6650391
1909,-57.375,38.25,-68.125,-0.4052734,0.3071289,-0.5864258,-0.02539063,-0.1166992,0.6650391
1913,-54.875,40.3125,-72.3125,-0.4052734,0.3149414,-0.5864258,-0.02685547,-0.1191406,0.6635742
1917,-53.125,42.9375,-77.375,-0.3935547,0.3110352,-0.5864258,-0.02539063,-0.1230469,0.6621094
1921,-50.3125,45.6875,-83,-0.3857422,0.2993164,-0.590332,-0.02539063,-0.1230469,0.6621094
1925,-47.0625,48.3125,-89.8125,-0.3662109,0.2875977,-0.6054688,-0.02685547,-0.1259766,0.6621094
1929,-42.6875,50.4375,-97.3125,-0.3623047,0.2719727,-0.6323242,-0.02539063,-0.128418,0.6635742
1933,-37.4375,51.75,-104.4375,-0.3427734,0.2680664,-0.6743164,-0.02539063,-0.128418,0.6635742
1937,-32.8125,52.6875,-111.5625,-0.3310547,0.2758789,-0.7202148,-0.02539063,-0.1323242,0.6606445
1941,-29.0625,52.6875,-118.0625,-0.3193359,0.2758789,-0.7661133,-0.02392578,-0.1352539,0.6606445
1945,-27.1875,52.5625,-123.375,-0.3232422,0.2602539,-0.8198242,-0.02392578,-0.1352539,0.6606445
1949,-28.3125,52.0625,-126.8125,-0.3388672,0.2524414,-0.8544922,-0.02539063,-0.1362305,0.6606445
1953,-32,51.4375,-129.375,-0.3466797,0.2602539,-0.8964844,-0.02783203,-0.1376953,0.659668
1957,-37.5,50,-132.1875,-0.3427734,0.2836914,-0.9272461,-0.02783203,-0.1376953,0.659668
1961,-43.8125,47.5625,-135.875,-0.3388672,0.3110352,-0.965332,-0.02539063,-0.1445313,0.6557617
1965,-53.625,44.125,-139.25,-0.3466797,0.3227539,-1,-0.02685547,-0.1445313,0.6557617
1969,-65.5,40.4375,-141.125,-0.3818359,0.3071289,-1.03418,-0.02685547,-0.1445313,0.6557617
1973,-80.1875,35.6875,-140.875,-0.3974609,0.2836914,-1.041992,-0.02539063,-0.1484375,0.6542969
1977,-94.9375,31.25,-139,-0.4052734,0.2719727,-1.041992,-0.02685547,-0.1538086,0.6503906
1982,-166.0625,21.875,-124.3125,-0.3310547,0.2167969,-0.9541016,-0.02783203,-0.1748047,0.6342773
1986,-163.875,28.4375,-123.1875,-0.3193359,0.1894531,-0.9541016,-0.02783203,-0.1748047,0.6342773
1990,-156.375,36.375,-125.125,-0.2919922,0.1738281,-0.9501953,-0.02929688,-0.1801758,0.625
1994,-143.5,44.875,-130,-0.2495117,0.1542969,-0.9541016,-0.03027344,-0.184082,0.6206055
1998,-127.5,53.9375,-136.5625,-0.2104492,0.1542969,-0.9575195,-0.03027344,-0.184082,0.6206055
2002,-109.5,63.75,-144.8125,-0.1791992,0.1699219,-0.9692383,-0.03271484,-0.1870117,0.6152344
2006,-88.625,73.9375,-152.875,-0.1713867,0.1738281,-0.9731445,-0.03417969,-0.190918,0.6098633
2010,-74.9375,81.5625,-159.375,-0.2182617,0.1660156,-1.01123,-0.03417969,-0.190918,0.6098633
2014,-67.125,82.6875,-162.6875,-0.2919922,0.1425781,-1.095703,-0.03515625,-0.190918,0.6049805
2018,-64.75,78.9375,-162,-0.3310547,0.1074219,-1.149414,-0.04052734,-0.190918,0.6035156
2022,-65.8125,74.3125,-158.125,-0.3427734,0.06445313,-1.195313,-0.04052734,-0.190918,0.6035156
2026,-69.6875,69,-152.25,-0.3427734,0.03320313,-1.241211,-0.04296875,-0.1894531,0.5996094
2030,-74.9375,63.625,-145.75,-0.3310547,-0.005371094,-1.283203,-0.04638672,-0.1894531,0.5981445
2034,-80.9375,56.625,-139.3125,-0.3154297,-0.03662109,-1.344238,-0.04638672,-0.1894531,0.5981445
2038,-88.125,48.875,-134.0625,-0.2958984,-0.04833984,-1.375,-0.04882813,-0.1894531,0.5952148
2042,-92.125,41.25,-130.5625,-0.2685547,-0.06787109,-1.397949,-0.05175781,-0.1894531,0.5942383
2046,-98.625,34.8125,-127.75,-0.2646484,-0.07568359,-1.416992,-0.05175781,-0.1894531,0.5942383
2050,-101.9375,28.5,-127.125,-0.2529297,-0.07958984,-1.439941,-0.05273438,-0.190918,0.5927734
2054,-103.625,21.9375,-127.875,-0.2568359,-0.07958984,-1.432617,-0.05419922,-0.190918,0.5888672
2058,-102.9375,15.6875,-129.3125,-0.2495117,-0.09130859,-1.405762,-0.05419922,-0.190918,0.5888672
2062,-98.3125,10.6875,-131.6875,-0.2104492,-0.07958984,-1.329102,-0.05761719,-0.1958008,0.5888672
2066,-90.8125,8.3125,-136.5,-0.144043,-0.03271484,-1.245117,-0.06005859,-0.1958008,0.5834961
2070,-78.0625,8.75,-144.0625,-0.09326172,0.001953125,-1.145508,-0.06005859,-0.1958008,0.5834961
2074,-63.625,12.375,-151.625,-0.07763672,0.009765625,-1.07666,-0.0625,-0.1958008,0.5844727
2078,-49.625,18.0625,-156.4375,-0.07763672,-0.001464844,-1.041992,-0.05908203,-0.2001953,0.5834961
2082,-38,25.25,-157.75,-0.08544922,-0.02099609,-1.026855,-0.05908203,-0.2001953,0.5834961
2086,-30.5625,32.3125,-156.4375,-0.08544922,-0.04443359,-1.064941,-0.06005859,-0.2001953,0.5844727
2091,-59.0625,43.9375,-122.3125,-0.06201172,-0.2397461,-1.420898,-0.0625,-0.2026367,0.5820313
2095,-71.5,40.125,-115,-0.05419922,-0.2475586,-1.447754,-0.06542969,-0.2050781,0.578125
2099,-82.875,35.4375,-108.1875,-0.06982422,-0.2514648,-1.474609,-0.06542969,-0.2050781,0.578125
2103,-91.375,29.4375,-102.5,-0.09326172,-0.2358398,-1.512695,-0.06542969,-0.2094727,0.5795898
2107,-98.875,21.875,-98.5,-0.1245117,-0.2280273,-1.539551,-0.06542969,-0.2133789,0.578125
2111,-102.4375,12.625,-94.9375,-0.1635742,-0.2280273,-1.578125,-0.06542969,-0.2133789,0.578125
2115,-104,2.1875,-92.0625,-0.1948242,-0.2163086,-1.582031,-0.06396484,-0.2158203,0.5751953
2119,-103.75,-9.3125,-90.6875,-0.2026367,-0.1967773,-1.578125,-0.0625,-0.2197266,0.5712891
2123,-101.0625,-20.125,-91.3125,-0.1791992,-0.1616211,-1.532227,-0.0625,-0.2197266,0.5712891
2127,-95.6875,-28.1875,-93.6875,-0.1635742,-0.1303711,-1.443848,-0.06152344,-0.2226563,0.5688477
2131,-87.9375,-33.4375,-96.3125,-0.1323242,-0.1108398,-1.375,-0.05908203,-0.2265625,0.5688477
2135,-86.4375,-37.125,-98.1875,-0.112793,-0.1069336,-1.325195,-0.05908203,-0.2265625,0.5688477
2139,-86.625,-41.9375,-98.1875,-0.1245117,-0.08740234,-1.313965,-0.05517578,-0.2280273,0.5634766
2143,-89.8125,-50.5,-95.25,-0.1323242,-0.1108398,-1.306152,-0.05175781,-0.2304688,0.5605469
2147,-95.375,-56.25,-91.875,-0.112793,-0.1303711,-1.256348,-0.05175781,-0.2304688,0.5605469
2151,-99,-58,-88.375,-0.07763672,-0.1655273,-1.214355,-0.04882813,-0.2319336,0.559082
2155,-100.375,-56.25,-84.9375,-0.03466797,-0.1889648,-1.168457,-0.04394531,-0.2373047,0.559082
2159,-98.625,-50.75,-81.875,-0.01904297,-0.2319336,-1.126465,-0.04394531,-0.2373047,0.559082
2163,-97,-44.875,-78.5,-0.01513672,-0.2514648,-1.137695,-0.04296875,-0.2373047,0.5541992
2167,-93.4375,-38.875,-76.6875,-0.02294922,-0.2553711,-1.133789,-0.04052734,-0.2382813,0.5512695
2171,-88.375,-34.25,-75.75,-0.03466797,-0.2475586,-1.152832,-0.04052734,-0.2382813,0.5512695
2175,-84.3125,-30.5625,-76.1875,-0.05810547,-0.2241211,-1.152832,-0.03515625,-0.2412109,0.5488281
2179,-78.125,-29.4375,-76.375,-0.09326172,-0.2241211,-1.175781,-0.03515625,-0.2421875,0.5473633
2183,-73.5625,-29.625,-76.8125,-0.1206055,-0.1967773,-1.183594,-0.03515625,-0.2421875,0.5473633
2187,-69.5,-30.25,-76.5,-0.1362305,-0.1694336,-1.172363,-0.03027344,-0.2436523,0.5444336
2191,-64.9375,-31.25,-76.875,-0.1557617,-0.1381836,-1.160645,-0.02685547,-0.246582,0.5419922
2195,-59.9375,-32.25,-77.375,-0.1713867,-0.1030273,-1.137695,-0.02685547,-0.246582,0.5419922
2200,-51.9375,-43.1875,-70.8125,-0.2182617,-0.09130859,-1.068848,-0.01660156,-0.2475586,0.5366211
2204,-53.5625,-47.5,-68.0625,-0.2026367,-0.1303711,-1.03418,-0.01416016,-0.246582,0.5366211
2208,-53.6875,-49.3125,-64.375,-0.1831055,-0.1655273,-1.003906,-0.01025391,-0.2475586,0.53125
2212,-51.8125,-47.875,-61.5,-0.1674805,-0.1967773,-0.9541016,-0.01025391,-0.2475586,0.53125
2216,-47.9375,-44.0625,-58.375,-0.1518555,-0.2358398,-0.9423828,-0.006835938,-0.2504883,0.53125
2220,-42.9375,-39,-54.375,-0.144043,-0.2709961,-0.9345703,-0.005371094,-0.2514648,0.53125
2224,-37.5,-34,-49.4375,-0.144043,-0.3022461,-0.9423828,-0.005371094,-0.2514648,0.53125
2228,-31,-29.25,-44.1875,-0.1401367,-0.3334961,-0.9501953,-0.002929688,-0.2490234,0.5297852
2232,-23.25,-24.1875,-38.4375,-0.1401367,-0.3413086,-0.9462891,-0.001464844,-0.2475586,0.5288086
2236,-13.1875,-18.1875,-34.1875,-0.1323242,-0.3217773,-0.9272461,-0.001464844,-0.2475586,0.5288086
2240,1.9375,-10,-32.6875,-0.128418,-0.2866211,-0.9003906,0.0004882813,-0.2490234,0.5297852
2244,19.1875,0.125,-33.75,-0.1323242,-0.2163086,-0.8774414,0.0004882813,-0.2504883,0.5273438
2248,35.4375,9.125,-36.1875,-0.1635742,-0.1616211,-0.8852539,0.0004882813,-0.2504883,0.5273438
2252,46.9375,15.25,-37.75,-0.2104492,-0.1108398,-0.9233398,0.001464844,-0.2490234,0.5288086
2256,54.125,18.375,-39.375,-0.2495117,-0.05615234,-0.9692383,0.00390625,-0.2490234,0.5297852
2260,59.625,22.25,-41.1875,-0.2958984,0.005859375,-0.9575195,0.00390625,-0.2490234,0.5297852
2264,63.75,30.375,-42.8125,-0.3505859,0.06054688,-0.984375,0.002929688,-0.2451172,0.53125
2268,66.375,43.5,-41.5625,-0.3662109,0.1347656,-1.003906,0.00390625,-0.2436523,0.5341797
2272,64.75,56.5625,-39.8125,-0.3544922,0.1855469,-1.087891,0.00390625,-0.2436523,0.5341797
2276,57.0625,60.0625,-37.8125,-0.3271484,0.2167969,-1.168457,0.002929688,-0.2421875,0.5366211
2280,45.6875,51.625,-37.25,-0.3193359,0.2128906,-1.206543,0.001464844,-0.2397461,0.5366211
2284,35.625,38.6875,-36.375,-0.3193359,0.1972656,-1.210449,0.001464844,-0.2397461,0.5366211
2288,28.625,28.375,-34.125,-0.3427734,0.1621094,-1.191406,0.002929688,-0.2382813,0.5405273
2292,21.3125,18.625,-29.4375,-0.3583984,0.1230469,-1.214355,0.0004882813,-0.2397461,0.5405273
2296,12.8125,6.9375,-22.75,-0.3583984,0.09179688,-1.225586,0.0004882813,-0.2397461,0.5405273
2300,4.6875,-4.3125,-16.625,-0.3505859,0.05664063,-1.202637,0.00390625,-0.2382813,0.5419922
2304,-2.9375,-15.3125,-11.8125,-0.3310547,0.02929688,-1.175781,0.002929688,-0.2373047,0.5419922
2309,-8,-39.8125,-9.4375,-0.2456055,-0.06787109,-0.8125,0.0078125,-0.2382813,0.5390625
2313,6.3125,-13.0625,-7.8125,-0.003417969,-0.2241211,-0.3720703,0.0078125,-0.2382813,0.5390625
2317,17,30.6875,2.5625,0.1674805,-0.4155273,-0.5288086,0.008789063,-0.2412109,0.5390625
2321,17.0625,9.25,23.6875,-0.08935547,-0.4038086,-1.233398,0.008789063,-0.2382813,0.5419922
2325,16.375,-26.625,26.625,-0.2763672,-0.1147461,-1.1875,0.008789063,-0.2382813,0.5419922
2329,29.75,-34.875,3.5625,-0.2880859,0.1738281,-0.9384766,0.0078125,-0.2373047,0.5419922
2333,44.1875,-28.5625,-23.5625,-0.2802734,0.2167969,-0.9272461,0.0078125,-0.2373047,0.5419922
2337,56.125,-18.5,-46.8125,-0.3037109,0.2050781,-0.9692383,0.0078125,-0.2373047,0.5419922
2341,60.8125,-9.8125,-56.375,-0.3154297,0.1191406,-0.9692383,0.01171875,-0.2358398,0.543457
2345,59.0625,1.375,-52.875,-0.3037109,0.08789063,-0.9423828,0.01269531,-0.234375,0.5444336
2349,52.0625,16.125,-41.1875,-0.3076172,0.08007813,-0.8925781,0.01269531,-0.234375,0.5444336
2353,39.0625,29.375,-24.9375,-0.3310547,0.1425781,-0.9194336,0.01269531,-0.2319336,0.5458984
2357,24.6875,35.1875,-16.1875,-0.3427734,0.2128906,-0.984375,0.01269531,-0.2319336,0.5473633
2361,11.75,37.125,-11.5625,-0.3544922,0.2050781,-1.030273,0.01269531,-0.2319336,0.5473633
2365,1.8125,39.25,-8.875,-0.3388672,0.1621094,-1.015137,0.01269531,-0.2304688,0.5498047
2369,-5.75,43.1875,-7.1875,-0.3037109,0.1347656,-0.9882813,0.01171875,-0.2304688,0.5488281
2373,-12,49.375,-6.6875,-0.2919922,0.1269531,-0.9614258,0.01171875,-0.2304688,0.5488281
2377,-16.875,51.9375,-4.875,-0.3193359,0.1191406,-0.9770508,0.01269531,-0.2319336,0.5498047
2381,-19.75,53,-2.75,-0.3349609,0.1386719,-0.9614258,0.008789063,-0.2319336,0.5527344
2385,-21.875,54.5,-1.5625,-0.3505859,0.1582031,-0.9575195,0.008789063,-0.2319336,0.5527344
2389,-23.125,55.4375,-1.75,-0.3701172,0.1582031,-0.984375,0.006347656,-0.2329102,0.5527344
2393,-22.5,54.4375,-2.0625,-0.3896484,0.1308594,-1.01123,0.0078125,-0.234375,0.5512695
2397,-21.5625,53.75,-2.8125,-0.3818359,0.1035156,-1.022949,0.0078125,-0.234375,0.5512695
2401,-19.5625,53,-2,-0.3701172,0.05664063,-1.019043,0.005371094,-0.2329102,0.5512695
2405,-17.875,51.0625,-1.4375,-0.3388672,0.05273438,-1.019043,0.00390625,-0.2329102,0.5527344
2409,-14,48.5,-2.375,-0.2880859,0.07226563,-1.007324,0.00390625,-0.2329102,0.5527344
2413,-5.625,44.875,-5.125,-0.2646484,0.09179688,-0.9960938,0.002929688,-0.234375,0.5512695
2418,15.6875,2.3125,-48.625,-0.3583984,0.2011719,-1.172363,0.0004882813,-0.2319336,0.5541992
2422,8.375,4.25,-54.875,-0.3544922,0.1542969,-1.129883,0.00390625,-0.2319336,0.5551758
2426,0.5625,13.1875,-61.25,-0.3623047,0.08789063,-1.022949,0.00390625,-0.2319336,0.5551758
2430,-7.5625,25.25,-66.875,-0.3857422,0.1035156,-0.9575195,0.005371094,-0.2319336,0.5551758
2434,-38.3125,37.4375,-72.4375,-0.4873047,0.06445313,-1.01123,0.005371094,-0.2304688,0.5551758
2438,-49.0625,41.5625,-70.125,-0.6118164,-0.2202148,-0.9003906,0.005371094,-0.2304688,0.5551758
2442,-25.0625,39.5625,-56.75,-0.7211914,-0.5288086,-0.8925781,0.00390625,-0.2319336,0.5541992
2446,4.8125,44.1875,-43.3125,-0.7446289,-0.5717773,-0.965332,0.006347656,-0.2319336,0.5551758
2450,15.8125,47.3125,-34.25,-0.7641602,-0.4624023,-1.087891,0.006347656,-0.2319336,0.5551758
2454,12.4375,48.625,-29.875,-0.7680664,-0.2944336,-1.145508,0.006347656,-0.2319336,0.5566406
2458,0.25,49.75,-28.8125,-0.7485352,-0.1694336,-1.160645,0.006347656,-0.2290039,0.5581055
2462,-10.8125,50.625,-30.3125,-0.7094727,-0.09912109,-1.175781,0.006347656,-0.2290039,0.5581055
2466,-16,51.625,-32.3125,-0.6938477,-0.1030273,-1.168457,0.00390625,-0.2304688,0.5605469
2470,-16.125,52.375,-34,-0.6860352,-0.1147461,-1.172363,0.005371094,-0.2304688,0.5605469
2474,-12.8125,52.875,-32.8125,-0.6743164,-0.1342773,-1.168457,0.005371094,-0.2304688,0.5605469
2478,-9.125,54.125,-29.1875,-0.6625977,-0.1459961,-1.168457,0.006347656,-0.2329102,0.559082
2482,-7,55.875,-23.625,-0.6430664,-0.1420898,-1.172363,0.00390625,-0.2319336,0.5620117
2486,-5.8125,58,-18.375,-0.6235352,-0.1342773,-1.172363,0.00390625,-0.2319336,0.5620117
2490,-5.625,58.5,-13.625,-0.6118164,-0.1225586,-1.1875,0.006347656,-0.2329102,0.5634766
2494,-5.25,58,-10.8125,-0.6000977,-0.1069336,-1.210449,0.00390625,-0.2304688,0.565918
2498,-4.5,57.375,-10,-0.6040039,-0.09130859,-1.210449,0.00390625,-0.2304688,0.565918
2502,-3.3125,56.875,-11.125,-0.6000977,-0.08740234,-1.222168,0.00390625,-0.2319336,0.5673828
2506,-1.3125,56.0625,-13.5,-0.6079102,-0.09130859,-1.222168,0.00390625,-0.2329102,0.5673828
2510,2.875,54.9375,-16.375,-0.6118164,-0.07177734,-1.229492,0.00390625,-0.2329102,0.5673828
2514,5.9375,54.125,-21.0625,-0.6118164,-0.05224609,-1.260254,0.00390625,-0.2329102,0.5688477
2518,4.875,52,-22.4375,-0.6079102,-0.02099609,-1.26416,0.002929688,-0.2290039,0.5698242
2522,1.875,54.1875,-31.5,-0.6313477,0.03710938,-1.268066,0.002929688,-0.2290039,0.5698242
2527,27.6875,49.25,-73.375,-0.5029297,0.09179688,-1.271484,0.008789063,-0.2236328,0.5766602
2531,28.625,48.875,-76.1875,-0.4677734,0.08398438,-1.275391,0.01025391,-0.2211914,0.5795898
2535,29.9375,48.8125,-78.0625,-0.4208984,0.06445313,-1.237305,0.01171875,-0.21875,0.5834961
2539,31.5625,49.8125,-79.625,-0.3779297,0.06054688,-1.206543,0.01171875,-0.21875,0.5834961
2543,33,50.5,-79.75,-0.3427734,0.04882813,-1.1875,0.01416016,-0.2133789,0.5834961
2547,33.625,51.4375,-79.25,-0.3076172,0.04492188,-1.172363,0.01416016,-0.2119141,0.5834961
2551,32.875,53,-78.625,-0.2568359,0.03710938,-1.160645,0.01416016,-0.2119141,0.5834961
2555,30.9375,54.8125,-78.5625,-0.206543,0.02148438,-1.160645,0.01660156,-0.2050781,0.5859375
2559,29.0625,56.9375,-77.75,-0.1518555,0.01367188,-1.129883,0.01757813,-0.2011719,0.5859375
2563,26.75,59.0625,-77,-0.09716797,0.01757813,-1.122559,0.01757813,-0.2011719,0.5859375
2567,24.75,62,-76.4375,-0.05419922,0.04492188,-1.087891,0.01904297,-0.1958008,0.5859375
2571,21.875,65.8125,-75.625,-0.01513672,0.07226563,-1.072754,0.01904297,-0.1948242,0.5859375
2575,18.4375,69.5625,-74.3125,0.01953125,0.1035156,-1.061035,0.01904297,-0.1948242,0.5859375
2579,15.8125,72,-72.0625,0.0390625,0.1230469,-1.045898,0.01904297,-0.1879883,0.5874023
2583,13.5,74.125,-69,0.06640625,0.1464844,-1.015137,0.01757813,-0.1870117,0.5859375
2587,12.5,75.5625,-64.8125,0.078125,0.1503906,-1.007324,0.01757813,-0.1870117,0.5859375
2591,12,76.25,-59.8125,0.1049805,0.1621094,-1,0.01757813,-0.184082,0.5874023
2595,12.3125,76.9375,-55.75,0.1362305,0.1738281,-0.9882813,0.01660156,-0.1816406,0.5859375
2599,13.1875,76.0625,-52.375,0.1791992,0.1933594,-0.9921875,0.01660156,-0.1816406,0.5859375
2603,14.125,74.9375,-49.125,0.2182617,0.2050781,-0.9882813,0.01513672,-0.1777344,0.5888672
2607,14.1875,73.25,-46.375,0.253418,0.2167969,-0.980957,0.01416016,-0.1762695,0.5874023
2611,14.25,70.625,-44,0.300293,0.2246094,-0.9541016,0.01416016,-0.1762695,0.5874023
2615,14.5,68.125,-41.75,0.331543,0.2324219,-0.9272461,0.01269531,-0.1723633,0.5859375
2619,15.75,65.75,-40.375,0.3510742,0.2441406,-0.9116211,0.01171875,-0.1694336,0.5874023
2623,18.125,63,-39.375,0.3745117,0.2641602,-0.9194336,0.01171875,-0.1694336,0.5874023
2627,23.4375,57.875,-41.0625,0.4521484,0.3110352,-0.9462891,0.01025391,-0.1669922,0.5874023
2631,30.3125,53,-45.6875,0.4018555,0.3774414,-0.9116211,0.0078125,-0.1655273,0.5874023
2636,35,22.5,-47.0625,0.4135742,0.2680664,-0.8657227,0.005371094,-0.1577148,0.5859375
2640,36,16.4375,-49.3125,0.4208984,0.2563477,-0.8466797,0.005371094,-0.1577148,0.5859375
2644,36.8125,11,-50.9375,0.4287109,0.2324219,-0.8085938,0.00390625,-0.1547852,0.5859375
2648,37.5,6.5,-52.125,0.4326172,0.2246094,-0.7929688,0.005371094,-0.1538086,0.5844727
2652,39.1875,1.625,-52.8125,0.4287109,0.2011719,-0.7700195,0.005371094,-0.1538086,0.5844727
2656,40.1875,-2.875,-53.0625,0.4248047,0.1777344,-0.7587891,0.005371094,-0.1499023,0.5844727
2660,40.9375,-7.0625,-53.4375,0.4135742,0.1621094,-0.7470703,0.006347656,-0.1499023,0.5844727
2664,40.9375,-10.1875,-53.6875,0.3979492,0.1386719,-0.7202148,0.006347656,-0.1499023,0.5844727
2668,40.6875,-12.625,-53.3125,0.3823242,0.1191406,-0.7089844,0.00390625,-0.1455078,0.5874023
2672,40.3125,-15.0625,-52.3125,0.3706055,0.1074219,-0.7011719,0.006347656,-0.1445313,0.5859375
2676,39.8125,-17.4375,-51.25,0.3549805,0.09179688,-0.6933594,0.006347656,-0.1445313,0.5859375
2680,38.5625,-19.4375,-49.8125,0.347168,0.08398438,-0.6782227,0.008789063,-0.1445313,0.5834961
2684,36.8125,-21.3125,-47.9375,0.331543,0.07226563,-0.6669922,0.008789063,-0.1391602,0.5805664
2688,34.5625,-21.9375,-44.9375,0.3237305,0.06054688,-0.644043,0.008789063,-0.1391602,0.5805664
2692,31.5625,-21.9375,-40.3125,0.3120117,0.01757813,-0.6245117,0.01025391,-0.1391602,0.5820313
2696,28.3125,-20.9375,-34.125,0.3081055,-0.01318359,-0.6245117,0.01025391,-0.1362305,0.5844727
2700,24.625,-18.875,-27.125,0.2885742,-0.02490234,-0.6054688,0.01025391,-0.1362305,0.5844727
2704,20.5,-16.1875,-19.1875,0.2807617,-0.04833984,-0.5976563,0.01025391,-0.1352539,0.5834961
2708,16.3125,-13.3125,-10.9375,0.2651367,-0.06787109,-0.5976563,0.01171875,-0.1362305,0.5844727
2712,12.1875,-10,-2.4375,0.2495117,-0.09521484,-0.5864258,0.01171875,-0.1362305,0.5844727
2716,7.8125,-6.5625,6.1875,0.222168,-0.1030273,-0.5712891,0.01171875,-0.1352539,0.5820313
2720,3.125,-3.5,14.4375,0.2143555,-0.1030273,-0.5786133,0.01269531,-0.1352539,0.5844727
2724,-2.5625,0,22.6875,0.2104492,-0.1069336,-0.5634766,0.01269531,-0.1352539,0.5844727
2728,-8.125,3,29.0625,0.206543,-0.09521484,-0.5673828,0.01269531,-0.1323242,0.5834961
2732,-13.8125,5.375,34.5,0.2026367,-0.08349609,-0.5825195,0.008789063,-0.1362305,0.5844727
2736,-19.0625,7.5,38.125,0.1987305,-0.07177734,-0.5976563,0.008789063,-0.1362305,0.5844727
2740,-24.0625,9,40.8125,0.2026367,-0.06005859,-0.6015625,0.01025391,-0.1362305,0.5820313
2745,-50.375,9.5625,58.9375,0.1674805,-0.001464844,-0.6132813,0.0078125,-0.1430664,0.5834961
2749,-56.125,7.5,61.875,0.190918,0.04101563,-0.6132813,0.005371094,-0.1445313,0.5834961
2753,-56.125,4.25,61.0625,0.1948242,0.03710938,-0.6245117,0.005371094,-0.1445313,0.5834961
2757,-53.5625,-0.75,59.125,0.1870117,0.02929688,-0.6474609,0.006347656,-0.1469727,0.5834961
2761,-52.0625,-5.9375,57.3125,0.175293,0.03320313,-0.6591797,0.008789063,-0.1499023,0.5834961
2765,-53.9375,-10,58.75,0.1362305,0.02148438,-0.6591797,0.008789063,-0.1499023,0.5834961
2769,-58.1875,-12.5,63.3125,0.1206055,0.03710938,-0.6669922,0.006347656,-0.1523438,0.5859375
2773,-61.4375,-14.125,66.9375,0.1088867,0.05273438,-0.6630859,0.005371094,-0.1538086,0.5834961
2777,-62.6875,-15.6875,68.375,0.09716797,0.06054688,-0.6782227,0.005371094,-0.1538086,0.5834961
2781,-63.125,-16.25,67.8125,0.078125,0.08007813,-0.6972656,0.005371094,-0.1591797,0.5834961
2785,-65.625,-16.9375,68.375,0.0703125,0.07617188,-0.7319336,0.00390625,-0.1601563,0.5834961
2789,-70,-17.25,68.9375,0.046875,0.08398438,-0.7509766,0.00390625,-0.1601563,0.5834961
2793,-75.3125,-16.5625,70.25,0.03125,0.08789063,-0.7661133,0.00390625,-0.1640625,0.5844727
2797,-80.125,-16,73.8125,0.00390625,0.08789063,-0.7739258,0.005371094,-0.1669922,0.5805664
2801,-84.375,-15.375,78.5625,-0.01513672,0.09179688,-0.7817383,0.005371094,-0.1669922,0.5805664
2805,-86.25,-14.8125,82.5625,-0.03076172,0.1152344,-0.796875,0.002929688,-0.1708984,0.5820313
2809,-88.875,-14.5,86.1875,-0.04248047,0.1308594,-0.796875,0.005371094,-0.1762695,0.5805664
2813,-92.5,-14.25,89.125,-0.05029297,0.1503906,-0.8198242,0.005371094,-0.1762695,0.5805664
2817,-92.5625,-14.9375,91.5,-0.06201172,0.1542969,-0.8276367,0.002929688,-0.1787109,0.5805664
2821,-91.75,-15.375,92.8125,-0.07763672,0.1699219,-0.8388672,0.00390625,-0.184082,0.5805664
2825,-87.8125,-15.3125,94.25,-0.1049805,0.1855469,-0.8583984,0.00390625,-0.184082,0.5805664
2829,-87.375,-15.25,95.625,-0.1206055,0.1933594,-0.8583984,0.002929688,-0.1879883,0.5805664
2833,-87.625,-13.5,95.25,-0.128418,0.2050781,-0.8583984,0.002929688,-0.1918945,0.578125
2837,-87.5,-11.9375,92.375,-0.1362305,0.2207031,-0.8696289,0.002929688,-0.1918945,0.578125
2841,-84.5625,-9.1875,91.6875,-0.1479492,0.2246094,-0.8852539,0.0004882813,-0.1972656,0.5805664
2845,-85.75,-6.5,89.1875,-0.1557617,0.2563477,-0.9233398,0.001464844,-0.2026367,0.5795898
2849,-88.5,-3.5,86.8125,-0.1674805,0.2797852,-0.9541016,0.001464844,-0.2026367,0.5795898
2854,-98.1875,10.25,80.375,-0.09716797,0.4672852,-1.064941,-0.004394531,-0.2236328,0.578125
2858,-98.625,9.1875,84.25,-0.08935547,0.4594727,-1.07666,-0.009277344,-0.2265625,0.5766602
2862,-99,7.3125,89.5625,-0.06591797,0.4555664,-1.053711,-0.01171875,-0.2319336,0.5751953
2866,-96.5,7.75,94.0625,-0.04638672,0.4477539,-1.026855,-0.01171875,-0.2319336,0.5751953
2870,-93,10.9375,99.375,-0.03857422,0.4360352,-1.038086,-0.01269531,-0.2421875,0.5751953
2874,-92.625,13.0625,108.75,-0.03857422,0.4282227,-1.080078,-0.01416016,-0.2451172,0.5742188
2878,-93,13.0625,117,-0.01904297,0.4360352,-1.083984,-0.01416016,-0.2451172,0.5742188
2882,-88.5,12.6875,122.5,0.01171875,0.4516602,-1.072754,-0.01806641,-0.2514648,0.5751953
2886,-85.4375,12.0625,124.375,0.046875,0.4790039,-1.057129,-0.02050781,-0.2583008,0.5712891
2890,-78.875,11.4375,125.25,0.05078125,0.4868164,-1.083984,-0.02050781,-0.2583008,0.5712891
2894,-76.6875,9.25,126,0.046875,0.5024414,-1.091797,-0.02539063,-0.2636719,0.5698242
2898,-76.3125,7.25,126,0.03515625,0.4985352,-1.087891,-0.02783203,-0.269043,0.5688477
2902,-76,4.75,125.25,0.03515625,0.4868164,-1.083984,-0.02783203,-0.269043,0.5688477
2906,-73.8125,2.6875,124.6875,0.03125,0.4399414,-1.061035,-0.03417969,-0.2753906,0.565918
2910,-70.4375,1.4375,124.6875,0.03125,0.4086914,-1.049805,-0.03759766,-0.2768555,0.5634766
2914,-67.3125,0.625,125.25,0.0390625,0.3813477,-1.030273,-0.03759766,-0.2768555,0.5634766
2918,-66.0625,0.6875,125.75,0.05078125,0.3735352,-1.022949,-0.04150391,-0.2822266,0.5605469
2922,-65.8125,0.375,126.375,0.0703125,0.3852539,-1.026855,-0.04638672,-0.2875977,0.5566406
2926,-66.625,-0.6875,126,0.08544922,0.3930664,-1.026855,-0.04638672,-0.2875977,0.5566406
2930,-66.125,-2.875,123.75,0.1010742,0.4047852,-1.038086,-0.05029297,-0.2915039,0.5566406
2934,-62.9375,-7.3125,119.75,0.112793,0.4008789,-1.041992,-0.05419922,-0.2954102,0.5512695
2938,-59.0625,-10.8125,116.25,0.1049805,0.4047852,-1.045898,-0.05419922,-0.2954102,0.5512695
2942,-58.5625,-14.0625,114.4375,0.08203125,0.4008789,-1.049805,-0.06005859,-0.296875,0.5488281
2946,-59.8125,-16.0625,113.5,0.04296875,0.3891602,-1.041992,-0.06542969,-0.3007813,0.5444336
2950,-62,-17.25,113.6875,0.00390625,0.3696289,-1.061035,-0.06542969,-0.3007813,0.5444336
2954,-61.875,-19.0625,112.8125,-0.03076172,0.3618164,-1.064941,-0.0703125,-0.3032227,0.5405273
2958,-59.75,-20.25,110.9375,-0.08154297,0.3540039,-1.053711,-0.07373047,-0.3061523,0.5366211
2963,-39.9375,-34.1875,82.8125,-0.2724609,0.2441406,-1.061035,-0.08886719,-0.3110352,0.5234375
2967,-38.125,-35.6875,75.875,-0.2998047,0.2128906,-1.068848,-0.08886719,-0.3110352,0.5234375
2971,-37.5,-36.25,69.4375,-0.3427734,0.1699219,-1.053711,-0.09033203,-0.3110352,0.5180664
2975,-36.75,-35.25,64.5625,-0.3662109,0.1191406,-1.053711,-0.09375,-0.3085938,0.5136719
2979,-37.125,-33.0625,60.875,-0.3818359,0.09570313,-1.053711,-0.09375,-0.3085938,0.5136719
2983,-39.75,-29.625,57.9375,-0.3857422,0.07226563,-1.064941,-0.09619141,-0.3100586,0.5126953
2987,-44.4375,-25.3125,54.8125,-0.3818359,0.07617188,-1.072754,-0.09765625,-0.3110352,0.5087891
2991,-51.125,-20.125,52.1875,-0.3818359,0.08007813,-1.083984,-0.09765625,-0.3110352,0.5087891
2995,-58.875,-13.9375,50.1875,-0.3818359,0.08789063,-1.072754,-0.09863281,-0.3110352,0.5073242
2999,-65.9375,-7.5625,48.4375,-0.3818359,0.09570313,-1.083984,-0.1000977,-0.3085938,0.503418
3003,-70.25,-0.8125,47.625,-0.3701172,0.08789063,-1.095703,-0.1000977,-0.3085938,0.503418
3007,-72.8125,5.5,47.8125,-0.3505859,0.1152344,-1.103027,-0.1025391,-0.3100586,0.4980469
3011,-74.0625,11.0625,47.375,-0.3232422,0.1503906,-1.126465,-0.1049805,-0.3110352,0.4936523
3015,-75.1875,16.1875,45.75,-0.3037109,0.1972656,-1.152832,-0.1049805,-0.3110352,0.4936523
3019,-77.4375,19.75,43.8125,-0.2724609,0.2441406,-1.179688,-0.1049805,-0.3125,0.4897461
3023,-79.9375,21.875,41.625,-0.2568359,0.2758789,-1.206543,-0.1074219,-0.3125,0.4882813
3027,-81.3125,22.75,39.9375,-0.2456055,0.2680664,-1.229492,-0.1074219,-0.3125,0.4882813
3031,-80.25,23.25,39.5,-0.2338867,0.2680664,-1.237305,-0.1098633,-0.3139648,0.4819336
3035,-77.9375,23.375,39.4375,-0.222168,0.2758789,-1.237305,-0.1137695,-0.3139648,0.4790039
3039,-74.875,22.6875,39.4375,-0.2104492,0.2797852,-1.245117,-0.1137695,-0.3139648,0.4790039
3043,-71.0625,22,39.375,-0.190918,0.2797852,-1.248535,-0.1137695,-0.3139648,0.4726563
3047,-67.1875,20.5,37.875,-0.1831055,0.3071289,-1.256348,-0.1137695,-0.3164063,0.4711914
3051,-63.3125,18.5,35,-0.1831055,0.3188477,-1.271484,-0.1137695,-0.3164063,0.4711914
3055,-59.125,16.0625,31.75,-0.1831055,0.3344727,-1.279297,-0.1176758,-0.3154297,0.4682617
3059,-54.0625,13.625,28.25,-0.1831055,0.3305664,-1.291016,-0.1176758,-0.3164063,0.4672852
3063,-48.875,11.0625,24.3125,-0.175293,0.3422852,-1.306152,-0.1176758,-0.3164063,0.4672852
3067,-44,8.75,19.375,-0.1831055,0.3540039,-1.321289,-0.1186523,-0.3164063,0.4619141
3072,-24.9375,1.375,-12.0625,-0.190918,0.4204102,-1.371094,-0.1201172,-0.3164063,0.4526367
3076,-21.375,0.6875,-16.0625,-0.175293,0.4360352,-1.378906,-0.1210938,-0.3154297,0.4511719
3080,-17.3125,0.3125,-19.75,-0.175293,0.4555664,-1.386719,-0.1210938,-0.3154297,0.4511719
3084,-13.6875,-0.1875,-23.125,-0.175293,0.4672852,-1.397949,-0.1186523,-0.3178711,0.449707
3088,-9.8125,-0.8125,-26,-0.1791992,0.4711914,-1.397949,-0.1186523,-0.3203125,0.4511719
3092,-5.8125,-1.6875,-28.625,-0.1713867,0.4790039,-1.405762,-0.1186523,-0.3203125,0.4511719
3096,-1.5625,-1.75,-30.6875,-0.1635742,0.4829102,-1.386719,-0.1186523,-0.3217773,0.4511719
3100,3.875,-0.8125,-32.9375,-0.1518555,0.4946289,-1.394043,-0.1176758,-0.3178711,0.4482422
3104,9,0.25,-35.3125,-0.1518555,0.5141602,-1.397949,-0.1176758,-0.3178711,0.4482422
3108,13.3125,1.5625,-38.75,-0.1362305,0.5415039,-1.432617,-0.1152344,-0.3203125,0.4482422
3112,16.125,2.3125,-42.25,-0.1323242,0.5688477,-1.447754,-0.1162109,-0.3217773,0.4526367
3116,18.375,2.4375,-46,-0.1166992,0.5922852,-1.447754,-0.1162109,-0.3217773,0.4526367
3120,20.75,2.375,-49.4375,-0.1088867,0.6040039,-1.436523,-0.1123047,-0.3217773,0.4526367
3124,23.5,2.1875,-51.8125,-0.112793,0.5961914,-1.428711,-0.1123047,-0.3217773,0.4511719
3128,26.875,1.125,-52.75,-0.1049805,0.5844727,-1.420898,-0.1123047,-0.3217773,0.4511719
3132,30.875,-0.25,-53.0625,-0.09716797,0.5844727,-1.409668,-0.1098633,-0.3232422,0.4550781
3136,35.6875,-2.1875,-52.5,-0.08935547,0.5649414,-1.394043,-0.1113281,-0.324707,0.456543
3140,40.0625,-4.25,-51.75,-0.08935547,0.5493164,-1.382813,-0.1113281,-0.324707,0.456543
3144,44.6875,-6.0625,-50.875,-0.08544922,0.5415039,-1.382813,-0.1074219,-0.3256836,0.456543
3148,49.25,-7.8125,-50.3125,-0.06591797,0.5415039,-1.367188,-0.1025391,-0.3256836,0.4589844
3152,53.0625,-10,-50.0625,-0.05810547,0.5336914,-1.355957,-0.1025391,-0.3256836,0.4589844
3156,56,-11.625,-50.5625,-0.04248047,0.5258789,-1.336914,-0.1025391,-0.3256836,0.4628906
3160,59.875,-13.1875,-52.25,-0.03466797,0.5297852,-1.336914,-0.1000977,-0.3271484,0.4672852
3164,63.5625,-15.0625,-54.25,-0.02294922,0.5258789,-1.329102,-0.1000977,-0.3271484,0.4672852
3168,67.6875,-17.25,-57.125,-0.007324219,0.5336914,-1.321289,-0.09863281,-0.3271484,0.4711914
3172,70.25,-19.5,-60.0625,0,0.5375977,-1.325195,-0.09863281,-0.3256836,0.4765625
3176,73.125,-22.125,-62.8125,0,0.5336914,-1.310059,-0.09863281,-0.3256836,0.4765625
3181,91.4375,-39.3125,-77.5625,-0.01123047,0.4438477,-1.241211,-0.08251953,-0.3193359,0.4951172
3185,93.5,-41.375,-80,-0.02294922,0.4321289,-1.233398,-0.07910156,-0.3178711,0.4990234
3189,95.625,-43.1875,-83.8125,-0.02685547,0.4165039,-1.225586,-0.07373047,-0.3178711,0.5058594
3193,97.5,-45.125,-87.625,-0.03857422,0.3969727,-1.225586,-0.07373047,-0.3178711,0.5058594
3197,98.4375,-47.3125,-91.5,-0.05419922,0.3657227,-1.225586,-0.06884766,-0.3154297,0.5097656
3201,98.9375,-48.625,-94.9375,-0.05419922,0.3500977,-1.214355,-0.06542969,-0.3100586,0.5151367
3205,99,-49.75,-98.8125,-0.06591797,0.3344727,-1.191406,-0.06542969,-0.3100586,0.5151367
3209,98.6875,-49.625,-102.75,-0.06591797,0.3227539,-1.175781,-0.05908203,-0.3061523,0.5166016
3213,98.5,-49,-106.625,-0.07373047,0.3188477,-1.152832,-0.05419922,-0.3017578,0.5219727
3217,98.3125,-48.125,-110.1875,-0.07763672,0.3032227,-1.141602,-0.05419922,-0.3017578,0.5219727
3221,97.8125,-47.625,-113.375,-0.08935547,0.2993164,-1.149414,-0.05029297,-0.2978516,0.5273438
3225,98.25,-46.9375,-116.4375,-0.08544922,0.2915039,-1.122559,-0.04541016,-0.2929688,0.5297852
3229,98.875,-45.5625,-118.8125,-0.08935547,0.2719727,-1.118652,-0.04541016,-0.2929688,0.5297852
3233,99.9375,-44.1875,-119.75,-0.09326172,0.2602539,-1.091797,-0.04150391,-0.2900391,0.5341797
3237,100.4375,-42.3125,-119.5625,-0.09326172,0.2563477,-1.083984,-0.03515625,-0.2836914,0.5380859
3241,101,-39.875,-119.3125,-0.1010742,0.2641602,-1.072754,-0.03515625,-0.2836914,0.5380859
3245,102.25,-38.25,-118.75,-0.1088867,0.2602539,-1.072754,-0.02929688,-0.2768555,0.5405273
3249,103.875,-36.875,-117.375,-0.1206055,0.2524414,-1.057129,-0.02539063,-0.2744141,0.5419922
3253,105.9375,-36,-116.125,-0.1245117,0.2402344,-1.053711,-0.02539063,-0.2744141,0.5419922
3257,108.125,-34.875,-114.375,-0.1323242,0.2324219,-1.049805,-0.02050781,-0.2675781,0.5473633
3261,109.5625,-33.875,-112.0625,-0.1362305,0.2167969,-1.041992,-0.015625,-0.2607422,0.5498047
3265,110.6875,-32.4375,-109.625,-0.1479492,0.2050781,-1.026855,-0.015625,-0.2607422,0.5498047
3269,111.5,-31,-107.4375,-0.144043,0.2050781,-1.026855,-0.01416016,-0.2543945,0.5527344
3273,111,-29.625,-105.75,-0.1557617,0.1933594,-1.007324,-0.009277344,-0.2504883,0.5541992
3277,110.8125,-28.1875,-104.3125,-0.1635742,0.1816406,-0.9882813,-0.009277344,-0.2504883,0.5541992
3281,109.625,-26.0625,-102.75,-0.1791992,0.1621094,-0.984375,-0.004394531,-0.2451172,0.5566406
3285,108.25,-23.6875,-100.875,-0.1791992,0.1425781,-0.965332,-0.001464844,-0.2412109,0.559082
3290,92.8125,0.25,-87.8125,-0.1674805,0.04492188,-0.8466797,0.006347656,-0.2172852,0.565918
3294,90.4375,4.0625,-83.9375,-0.1635742,0.03320313,-0.8388672,0.006347656,-0.2172852,0.565918
3298,87.25,7.875,-79.8125,-0.1557617,0.03320313,-0.831543,0.008789063,-0.2133789,0.5673828
3302,84.125,11.0625,-75.125,-0.1518555,0.02539063,-0.8237305,0.01171875,-0.2080078,0.5673828
3306,80.75,14.125,-69.875,-0.1401367,0.02148438,-0.8198242,0.01171875,-0.2080078,0.5673828
3310,77.0625,17.125,-64.3125,-0.1245117,0.009765625,-0.8046875,0.01269531,-0.2026367,0.5688477
3314,73.25,19.3125,-58.5625,-0.112793,-0.005371094,-0.8085938,0.01171875,-0.2001953,0.5673828
3318,69.75,22.4375,-53.0625,-0.112793,0.005859375,-0.7929688,0.01171875,-0.2001953,0.5673828
3322,67.5,26.375,-48.4375,-0.1088867,-0.001464844,-0.796875,0.01171875,-0.1972656,0.5688477
3326,65.75,31.1875,-44.0625,-0.1206055,0.01367188,-0.8046875,0.01269531,-0.1918945,0.5688477
3330,63.6875,35.75,-40.5,-0.1206055,0.04101563,-0.831543,0.01269531,-0.1918945,0.5688477
3334,60.875,40.25,-38.3125,-0.1206055,0.07617188,-0.8466797,0.01269531,-0.1894531,0.5727539
3338,57.4375,44.1875,-37.6875,-0.112793,0.1152344,-0.8583984,0.01171875,-0.1855469,0.5727539
3342,54.3125,47.0625,-37.9375,-0.1245117,0.1269531,-0.8735352,0.01171875,-0.1855469,0.5727539
3346,52.125,48.75,-38.4375,-0.1245117,0.1386719,-0.8618164,0.01171875,-0.1816406,0.5727539
3350,51.125,49.5625,-39,-0.1323242,0.1464844,-0.8583984,0.01025391,-0.1816406,0.5742188
3354,51.75,49,-39.3125,-0.1323242,0.1464844,-0.8544922,0.01025391,-0.1816406,0.5742188
3358,53.5,48.0625,-39.375,-0.1323242,0.1386719,-0.8544922,0.008789063,-0.1787109,0.5751953
3362,55.1875,46.875,-38.625,-0.1206055,0.1386719,-0.8388672,0.006347656,-0.1762695,0.5766602
3366,56.5,45.8125,-37.5625,-0.112793,0.1308594,-0.8354492,0.006347656,-0.1762695,0.5766602
3370,56.8125,44.6875,-36.5,-0.08935547,0.1347656,-0.8085938,0.0078125,-0.1733398,0.5766602
3374,56.625,43.5,-35.625,-0.07373047,0.1269531,-0.8007813,0.005371094,-0.1708984,0.578125
3378,56.1875,42.4375,-34.8125,-0.05029297,0.1113281,-0.7929688,0.005371094,-0.1708984,0.578125
3382,55.8125,40.6875,-34.375,-0.03466797,0.1074219,-0.7739258,0.00390625,-0.1708984,0.5766602
3386,55.4375,39.0625,-34.0625,-0.01123047,0.09179688,-0.777832,0.002929688,-0.1655273,0.578125
3390,54.8125,37.3125,-34.0625,0.00390625,0.08007813,-0.7587891,0.002929688,-0.1655273,0.578125
3394,54.75,35.25,-34.375,0.02734375,0.06835938,-0.7626953,0.002929688,-0.1630859,0.5820313
3399,48.375,21.1875,-30,0.0703125,0.03320313,-0.7470703,0.001464844,-0.15625,0.5805664
3403,47.1875,18.4375,-29.9375,0.0703125,0.02929688,-0.7470703,0.001464844,-0.1523438,0.5834961
3407,45.75,16,-29.75,0.06640625,0.02148438,-0.7431641,0.001464844,-0.1523438,0.5834961
3411,44.5625,13.25,-29.5,0.06640625,0.01757813,-0.7431641,0.001464844,-0.1508789,0.5834961
3415,43.6875,10.375,-29.25,0.0625,0.005859375,-0.7202148,-0.0004882813,-0.1469727,0.5834961
3419,42.9375,7.8125,-28.75,0.06640625,-0.005371094,-0.7167969,-0.0004882813,-0.1469727,0.5834961
3423,41.875,4.625,-28.125,0.05859375,-0.02099609,-0.7128906,0.0004882813,-0.1469727,0.5834961
3427,40.9375,1.875,-27.125,0.0546875,-0.03271484,-0.7050781,0.0004882813,-0.1430664,0.5834961
3431,39.125,-0.125,-25.875,0.046875,-0.05615234,-0.6972656,0.0004882813,-0.1430664,0.5834961
3435,36.875,-2.1875,-24.0625,0.02734375,-0.07568359,-0.6704102,0.0004882813,-0.1445313,0.5844727
3439,33.6875,-3.375,-22.25,0.02734375,-0.08740234,-0.6630859,0.0004882813,-0.1430664,0.5859375
3443,30.25,-4.625,-20.5,0.01953125,-0.09130859,-0.6669922,0.0004882813,-0.1430664,0.5859375
3447,26.0625,-5.625,-19,0,-0.1069336,-0.6704102,0.0004882813,-0.1430664,0.5844727
3451,21.5625,-6.5,-17.4375,-0.01123047,-0.1108398,-0.6552734,0.002929688,-0.140625,0.5820313
3455,17.5,-6.6875,-15.375,-0.02685547,-0.1264648,-0.6552734,0.002929688,-0.140625,0.5820313
3459,13.125,-5.8125,-12.125,-0.02685547,-0.1577148,-0.644043,0.002929688,-0.1391602,0.5844727
3463,8.5,-3.9375,-10.0625,-0.02685547,-0.1264648,-0.628418,0.002929688,-0.1391602,0.5834961
3467,5.375,-3.4375,-8,-0.03857422,-0.1499023,-0.6513672,0.002929688,-0.1391602,0.5834961
3471,0,-3.4375,-3.25,-0.03857422,-0.1811523,-0.6474609,0.001464844,-0.1376953,0.5859375
3475,-5.875,-1.5625,1.8125,-0.04638672,-0.1889648,-0.6245117,0.002929688,-0.1391602,0.5844727
3479,-12.4375,1.25,7.875,-0.04248047,-0.1928711,-0.6054688,0.002929688,-0.1391602,0.5844727
3483,-18.625,4.625,13.9375,-0.03857422,-0.1967773,-0.6054688,0.002929688,-0.1416016,0.5859375
3487,-25.6875,7.75,20.125,-0.03076172,-0.1811523,-0.6206055,0.001464844,-0.140625,0.5844727
3491,-33,11.0625,25.3125,-0.01513672,-0.1616211,-0.6474609,0.001464844,-0.140625,0.5844727
3495,-40.125,14.3125,29.375,-0.003417969,-0.1381836,-0.6474609,0.001464844,-0.1391602,0.5859375
3499,-45.8125,17.375,32.4375,0,-0.1069336,-0.6669922,0.001464844,-0.140625,0.5834961
3503,-50.75,19.3125,34.5,0.01171875,-0.09521484,-0.6743164,0.001464844,-0.140625,0.5834961
3508,-66.125,15.0625,43.5,0.0703125,0.02148438,-0.7011719,-0.0004882813,-0.1523438,0.5834961
3512,-66.0625,12.25,44.875,0.08203125,0.02148438,-0.6972656,-0.0004882813,-0.1538086,0.5844727
3516,-66.25,8.625,46.25,0.08544922,0.02148438,-0.6972656,-0.002929688,-0.15625,0.5820313
3520,-65.9375,4.375,47.625,0.08935547,0.02539063,-0.7128906,-0.002929688,-0.15625,0.5820313
3524,-66.0625,-0.1875,47.9375,0.08544922,0.04882813,-0.7011719,-0.005371094,-0.1591797,0.5834961
3528,-67.1875,-3.8125,47.8125,0.08544922,0.05664063,-0.7050781,-0.002929688,-0.1601563,0.5844727
3532,-68.9375,-7.0625,46.9375,0.06640625,0.06445313,-0.6899414,-0.002929688,-0.1601563,0.5844727
3536,-70.5,-10.1875,45.3125,0.04296875,0.07226563,-0.7050781,-0.001464844,-0.1616211,0.5820313
3540,-71.8125,-12.8125,43.625,0.03125,0.07226563,-0.7050781,-0.004394531,-0.1669922,0.5820313
3544,-72.8125,-14.3125,42.375,0.01171875,0.07617188,-0.7128906,-0.004394531,-0.1669922,0.5820313
3548,-73.5625,-15,41.5,0.00390625,0.07226563,-0.7167969,-0.004394531,-0.1708984,0.5820313
3552,-75.375,-15.4375,41.3125,-0.01904297,0.07617188,-0.7319336,-0.004394531,-0.1733398,0.5820313
3556,-77.5,-14.9375,42.5625,-0.04248047,0.08007813,-0.7280273,-0.004394531,-0.1733398,0.5820313
3560,-80.5625,-13.6875,43.875,-0.07763672,0.09179688,-0.7128906,-0.005371094,-0.1777344,0.5820313
3564,-84.375,-11.8125,46.5625,-0.1010742,0.08789063,-0.7202148,-0.004394531,-0.1787109,0.5820313
3568,-88.1875,-10.125,50.25,-0.1323242,0.07617188,-0.7280273,-0.004394531,-0.1787109,0.5820313
3572,-89.3125,-8.5,55.25,-0.1401367,0.06054688,-0.7358398,-0.004394531,-0.1826172,0.5795898
3576,-89.625,-6.5,61.5,-0.1323242,0.05273438,-0.7431641,-0.004394531,-0.1855469,0.5766602
3580,-94.25,-3.625,67.5,-0.1166992,0.06054688,-0.7431641,-0.004394531,-0.1855469,0.5766602
3584,-98.6875,-0.0625,73.0625,-0.09326172,0.08007813,-0.7358398,-0.004394531,-0.1894531,0.5766602
3588,-103.8125,3.6875,78.5625,-0.08154297,0.09570313,-0.7358398,-0.006835938,-0.1933594,0.5766602
3592,-108.375,7.75,84.25,-0.05810547,0.09960938,-0.7397461,-0.006835938,-0.1933594,0.5766602
3596,-112.4375,11.4375,89.875,-0.03466797,0.1113281,-0.7548828,-0.0078125,-0.2001953,0.5766602
3600,-116.3125,14.5625,93.6875,-0.007324219,0.1230469,-0.7817383,-0.01025391,-0.2041016,0.5751953
3604,-119.9375,17.4375,97.875,0.01953125,0.1582031,-0.7929688,-0.01025391,-0.2041016,0.5751953
3608,-122.8125,19.125,99.125,0.0390625,0.2128906,-0.8237305,-0.01171875,-0.2104492,0.5727539
3612,-124.375,19,97.6875,0.05078125,0.2602539,-0.8618164,-0.01416016,-0.2143555,0.5727539
3617,-113.875,0.6875,80.0625,0.015625,0.4008789,-0.9462891,-0.02294922,-0.2382813,0.5688477
3621,-112.625,-1.25,81.1875,0.00390625,0.3969727,-0.9462891,-0.02294922,-0.2382813,0.5688477
3625,-113.375,-2.375,83.375,-0.003417969,0.3930664,-0.9384766,-0.02392578,-0.2436523,0.565918
3629,-113.5625,-3.1875,86.5625,-0.007324219,0.3891602,-0.9423828,-0.02539063,-0.2504883,0.5634766
3633,-114.1875,-3.75,89.9375,-0.01123047,0.4047852,-0.9272461,-0.02539063,-0.2504883,0.5634766
3637,-114.4375,-3.9375,92.375,-0.003417969,0.4282227,-0.9423828,-0.02783203,-0.2568359,0.5644531
3641,-114.5625,-4.25,93.5,-0.003417969,0.4321289,-0.9541016,-0.03027344,-0.2651367,0.5581055
3645,-115.3125,-4.9375,96.125,-0.003417969,0.4438477,-0.965332,-0.03027344,-0.2651367,0.5581055
3649,-117.25,-5.125,95.75,0,0.4633789,-0.9614258,-0.03271484,-0.269043,0.5566406
3653,-118.875,-4.875,95.375,-0.003417969,0.4750977,-0.9575195,-0.03662109,-0.2792969,0.5551758
3657,-120.5,-4.9375,92.8125,-0.003417969,0.4790039,-0.9614258,-0.03662109,-0.2792969,0.5551758
3661,-121.4375,-4.875,92.1875,0.00390625,0.4750977,-0.9614258,-0.03759766,-0.2836914,0.5488281
3665,-122,-4.625,92.125,0,0.4672852,-0.9731445,-0.04394531,-0.2900391,0.5473633
3669,-121.9375,-4.8125,91.6875,0.0078125,0.4594727,-0.980957,-0.04394531,-0.2900391,0.5473633
3673,-120.25,-5.375,91.125,0.01953125,0.4555664,-1,-0.04785156,-0.296875,0.5419922
3677,-119.375,-6.6875,91.3125,0.0078125,0.4438477,-0.980957,-0.04882813,-0.3017578,0.5380859
3681,-118.5,-7.5625,92.5625,0.0078125,0.4399414,-0.984375,-0.04882813,-0.3017578,0.5380859
3685,-117.8125,-8.125,93.6875,0.01953125,0.4243164,-0.984375,-0.05273438,-0.3085938,0.5341797
3689,-117.125,-8.125,96.5,0.015625,0.4243164,-0.9882813,-0.05761719,-0.3125,0.5297852
3693,-115.9375,-7.625,96.6875,0.01953125,0.4321289,-1.003906,-0.05761719,-0.3125,0.5297852
3697,-114.25,-7,96.5,0.0078125,0.4399414,-1.015137,-0.0625,-0.3193359,0.519043
3701,-112.375,-7.5625,93.5,-0.007324219,0.4594727,-1.026855,-0.06542969,-0.3256836,0.5136719
3705,-109.625,-8.4375,91.9375,-0.02294922,0.4790039,-1.038086,-0.06542969,-0.3256836,0.5136719
3709,-107.5625,-9.3125,89,-0.04638672,0.4829102,-1.053711,-0.06884766,-0.3286133,0.5087891
3713,-104.4375,-10.25,86.25,-0.05419922,0.4750977,-1.061035,-0.07373047,-0.3325195,0.5019531
3717,-101.5625,-10.75,83.875,-0.06201172,0.4633789,-1.072754,-0.07373047,-0.3325195,0.5019531
3721,-98.875,-10.75,82,-0.06201172,0.4555664,-1.068848,-0.07666016,-0.3349609,0.4951172
3726,-77.0625,-12.3125,76.8125,-0.1166992,0.4047852,-1.041992,-0.09130859,-0.340332,0.4672852
3730,-72.6875,-14.5625,75,-0.128418,0.3969727,-1.053711,-0.09375,-0.3378906,0.4619141
3734,-68.875,-17.1875,72.6875,-0.1245117,0.3891602,-1.053711,-0.09375,-0.3378906,0.4619141
3738,-66.0625,-20,69.375,-0.1323242,0.3891602,-1.064941,-0.09521484,-0.3349609,0.4580078
3742,-64.375,-23.0625,65.125,-0.1362305,0.3735352,-1.064941,-0.09765625,-0.3339844,0.4511719
3746,-63.0625,-25.75,61.4375,-0.144043,0.3500977,-1.064941,-0.09765625,-0.3339844,0.4511719
3750,-62.5,-27.875,58.375,-0.1479492,0.3266602,-1.057129,-0.1000977,-0.3286133,0.4472656
3754,-62.4375,-28.3125,55.1875,-0.1518555,0.3071289,-1.049805,-0.1040039,-0.3295898,0.4443359
3758,-63.625,-28.0625,51.75,-0.1635742,0.2954102,-1.053711,-0.1040039,-0.3295898,0.4443359
3762,-66.25,-26.375,48.3125,-0.1674805,0.2915039,-1.07666,-0.1040039,-0.3286133,0.4365234
3766,-70.1875,-24.125,44.6875,-0.1674805,0.2993164,-1.07666,-0.1064453,-0.3217773,0.4335938
3770,-73.5,-21.6875,40.625,-0.1791992,0.3071289,-1.103027,-0.1064453,-0.3217773,0.4335938
3774,-76.4375,-19.25,36.375,-0.1870117,0.3344727,-1.106934,-0.1049805,-0.3217773,0.4282227
3778,-78.8125,-16.6875,31.8125,-0.1948242,0.3422852,-1.11084,-0.1074219,-0.3154297,0.4257813
3782,-81.8125,-13.1875,27.75,-0.1987305,0.3696289,-1.133789,-0.1074219,-0.3154297,0.4257813
3786,-83.75,-9.5,24.0625,-0.206543,0.3813477,-1.137695,-0.1049805,-0.3139648,0.421875
3790,-85.75,-6.0625,21.0625,-0.2026367,0.3930664,-1.156738,-0.1074219,-0.3100586,0.4189453
3794,-84.9375,-2.875,18.5625,-0.2143555,0.4282227,-1.172363,-0.1074219,-0.3100586,0.4189453
3798,-83.4375,-0.6875,16.5625,-0.2104492,0.4399414,-1.1875,-0.1049805,-0.3085938,0.4150391
3802,-79.875,1.125,14.75,-0.206543,0.4633789,-1.191406,-0.1040039,-0.3071289,0.4111328
3806,-76.5625,3.0625,13.25,-0.1948242,0.4985352,-1.19873,-0.1040039,-0.3071289,0.4111328
3810,-72.3125,5,11.125,-0.1948242,0.5258789,-1.218262,-0.1049805,-0.3032227,0.4111328
3814,-67.8125,6.75,8.9375,-0.190918,0.5571289,-1.245117,-0.1049805,-0.3017578,0.4072266
3818,-63.0625,8.0625,6.6875,-0.1870117,0.5766602,-1.271484,-0.1049805,-0.3017578,0.4072266
3822,-57.9375,9.0625,4.625,-0.1831055,0.6040039,-1.29834,-0.1049805,-0.2978516,0.402832
3826,-52.875,9.875,2.25,-0.1713867,0.6313477,-1.321289,-0.1040039,-0.2954102,0.402832
3830,-47.875,10.375,0.5625,-0.175293,0.6430664,-1.321289,-0.1040039,-0.2954102,0.402832
3835,-20.25,10.25,-1.125,-0.144043,0.6782227,-1.413574,-0.1040039,-0.2861328,0.4003906
3839,-16.0625,10.375,-1.6875,-0.144043,0.6743164,-1.420898,-0.1025391,-0.284668,0.4018555
3843,-12.0625,10.0625,-2.1875,-0.1557617,0.6743164,-1.428711,-0.1040039,-0.2822266,0.4003906
3847,-8.8125,9.5625,-2.0625,-0.144043,0.6704102,-1.436523,-0.1040039,-0.2822266,0.4003906
3851,-6.8125,9.9375,-1.8125,-0.1401367,0.6782227,-1.436523,-0.1025391,-0.2836914,0.4018555
3855,-4.8125,10.625,-2.9375,-0.128418,0.6977539,-1.447754,-0.1000977,-0.2807617,0.4003906
3859,-2.5625,11.25,-5.4375,-0.128418,0.7211914,-1.463379,-0.1000977,-0.2807617,0.4003906
3863,0.5625,11.5,-8.6875,-0.1166992,0.7485352,-1.474609,-0.1015625,-0.2807617,0.4003906
3867,4.3125,11.375,-12.3125,-0.1088867,0.7680664,-1.486328,-0.1015625,-0.2807617,0.4003906
3871,8,11.125,-15.6875,-0.1010742,0.7836914,-1.497559,-0.1015625,-0.2807617,0.4003906
3875,11.3125,11.1875,-18.375,-0.1010742,0.7954102,-1.497559,-0.1015625,-0.2807617,0.4003906
3879,14.8125,11.125,-20.0625,-0.09716797,0.8149414,-1.493652,-0.1000977,-0.2792969,0.4003906
3883,17.75,11,-20.375,-0.08935547,0.8305664,-1.486328,-0.1000977,-0.2792969,0.4003906
3887,21.0625,10.375,-19.9375,-0.06591797,0.8461914,-1.482422,-0.1000977,-0.2792969,0.4003906
3891,25.4375,9.3125,-19.4375,-0.05419922,0.8696289,-1.474609,-0.09863281,-0.2822266,0.4003906
3895,31.9375,7,-19.375,-0.03857422,0.8930664,-1.474609,-0.09863281,-0.2822266,0.4003906
3899,42.8125,3.5625,-25.25,-0.04638672,0.9907227,-1.497559,-0.09863281,-0.2822266,0.3989258
3903,48.9375,-1.9375,-22.9375,-0.01513672,0.8383789,-1.501465,-0.1000977,-0.284668,0.4018555
3907,50.625,-2.4375,-13.9375,0.04296875,0.7954102,-1.367188,-0.1000977,-0.284668,0.4018555
3911,58.5625,-0.5625,-18.375,0.0078125,0.9555664,-1.325195,-0.1015625,-0.284668,0.402832
3915,67.4375,-5.4375,-21.75,-0.007324219,0.8969727,-1.401855,-0.1015625,-0.2875977,0.4057617
3919,75.25,-10.125,-22.9375,-0.03076172,0.8540039,-1.409668,-0.1015625,-0.2875977,0.4057617
3923,81.9375,-14.0625,-25.375,-0.03076172,0.8461914,-1.378906,-0.1000977,-0.2900391,0.4042969
3927,89.1875,-17.5625,-29.3125,-0.02685547,0.8149414,-1.344238,-0.1000977,-0.2900391,0.4072266
3931,97,-20.5,-32.8125,-0.02294922,0.7758789,-1.317871,-0.1000977,-0.2900391,0.4072266
3935,103,-22.875,-35.6875,-0.02294922,0.7485352,-1.29834,-0.1015625,-0.2929688,0.4111328
3939,107.9375,-25.0625,-38,-0.02685547,0.7211914,-1.268066,-0.1000977,-0.2929688,0.4165039
3944,126.75,-36.5625,-43.3125,-0.1010742,0.4516602,-1.122559,-0.09375,-0.3007813,0.4335938
3948,127.75,-37.1875,-42.25,-0.1088867,0.4125977,-1.114746,-0.09375,-0.3007813,0.4335938
3952,127.9375,-37.9375,-41.875,-0.112793,0.3891602,-1.091797,-0.09277344,-0.3017578,0.4418945
3956,127.6875,-37.875,-42.875,-0.1166992,0.3696289,-1.080078,-0.09130859,-0.3017578,0.4472656
3960,127.0625,-37.3125,-44.5625,-0.1362305,0.3540039,-1.07666,-0.09130859,-0.3017578,0.4472656
3964,127.125,-36.875,-47.1875,-0.1518555,0.3383789,-1.07666,-0.09033203,-0.3032227,0.4536133
3968,127.3125,-36.3125,-50.1875,-0.159668,0.3344727,-1.087891,-0.08496094,-0.3007813,0.4589844
3972,127.5625,-35.1875,-53.625,-0.1791992,0.3227539,-1.087891,-0.08496094,-0.3007813,0.4589844
3976,127.5,-34.0625,-57.25,-0.1948242,0.3305664,-1.091797,-0.08398438,-0.3007813,0.4643555
3980,126.6875,-32.875,-61.3125,-0.2026367,0.3188477,-1.083984,-0.08154297,-0.2993164,0.4711914
3984,125.5625,-31.4375,-64.25,-0.222168,0.3110352,-1.091797,-0.08154297,-0.2993164,0.4711914
3988,124.625,-30.1875,-66.875,-0.2416992,0.2915039,-1.087891,-0.07910156,-0.3007813,0.4765625
3992,123.75,-28.75,-68.0625,-0.2568359,0.2719727,-1.064941,-0.07910156,-0.2978516,0.4833984
3996,123.625,-27.125,-69.125,-0.2685547,0.2602539,-1.068848,-0.07910156,-0.2978516,0.4833984
4000,123.5,-25.4375,-69.5625,-0.2685547,0.2402344,-1.049805,-0.07519531,-0.2954102,0.4882813
4004,124.0625,-23.75,-69.8125,-0.2646484,0.2363281,-1.03418,-0.07128906,-0.2954102,0.4936523
4008,124.625,-22.4375,-70.3125,-0.2568359,0.2324219,-1.038086,-0.07128906,-0.2954102,0.4936523
4012,125.25,-21.9375,-70.5625,-0.2646484,0.2207031,-1.030273,-0.06640625,-0.2939453,0.4990234
4016,126.125,-21.8125,-71.1875,-0.2646484,0.2128906,-1.026855,-0.06542969,-0.2900391,0.5073242
4020,126.375,-21.8125,-71.3125,-0.2568359,0.1738281,-1.022949,-0.06542969,-0.2900391,0.5073242
4024,125.875,-20.625,-70.9375,-0.2529297,0.1503906,-0.9882813,-0.06152344,-0.2875977,0.5097656
4028,124.1875,-19.375,-70.625,-0.2529297,0.1308594,-0.980957,-0.05761719,-0.2836914,0.5180664
4032,122.125,-17.625,-70.75,-0.2529297,0.1152344,-0.984375,-0.05761719,-0.2836914,0.5180664
4036,119,-16.0625,-70.5,-0.2529297,0.09570313,-0.9692383,-0.05664063,-0.2792969,0.5219727
4040,115.875,-14.125,-70.0625,-0.2529297,0.08007813,-0.9614258,-0.05175781,-0.2783203,0.5273438
4044,113.3125,-12,-69.8125,-0.2529297,0.06835938,-0.9614258,-0.05175781,-0.2783203,0.5273438
4048,110.3125,-9.875,-70.25,-0.2416992,0.06835938,-0.9614258,-0.04882813,-0.2744141,0.53125
4053,95.8125,4.375,-82.875,-0.2763672,0.1113281,-0.980957,-0.03662109,-0.2607422,0.5458984
4057,94.3125,7.0625,-84.9375,-0.2724609,0.1113281,-0.9921875,-0.03417969,-0.2543945,0.5488281
4061,92.5625,10.25,-86.0625,-0.2763672,0.1152344,-0.980957,-0.03417969,-0.2543945,0.5488281
4065,90.1875,13.125,-86.3125,-0.2685547,0.1152344,-0.9770508,-0.03173828,-0.2504883,0.5527344
4069,88.3125,16.3125,-85.375,-0.2607422,0.1152344,-0.9692383,-0.02929688,-0.2475586,0.5566406
4073,86,19.5,-83.75,-0.2607422,0.1152344,-0.9614258,-0.02929688,-0.2475586,0.5566406
4077,84,22.1875,-81.4375,-0.2607422,0.1152344,-0.9541016,-0.02539063,-0.2421875,0.5605469
4081,82.8125,25.125,-78.6875,-0.2568359,0.1269531,-0.9423828,-0.02539063,-0.2397461,0.559082
4085,81.9375,27.8125,-76.4375,-0.2416992,0.1347656,-0.9462891,-0.02539063,-0.2397461,0.559082
4089,81.0625,30.5625,-74.375,-0.2260742,0.1464844,-0.9272461,-0.02392578,-0.2373047,0.565918
4093,80.6875,33,-72.6875,-0.2104492,0.1503906,-0.9311523,-0.02050781,-0.2290039,0.5688477
4097,80.5,34.5625,-70.8125,-0.1948242,0.1503906,-0.9233398,-0.02050781,-0.2290039,0.5688477
4101,80.75,35.75,-69.1875,-0.175293,0.1542969,-0.9155273,-0.01806641,-0.2280273,0.5712891
4105,80.5625,36.4375,-67.375,-0.1479492,0.1503906,-0.9155273,-0.02050781,-0.2250977,0.5712891
4109,80.5,36.875,-65.375,-0.1206055,0.1503906,-0.9042969,-0.02050781,-0.2250977,0.5712891
4113,80.25,36.75,-63.4375,-0.09716797,0.1542969,-0.8886719,-0.01904297,-0.21875,0.5751953
4117,79.9375,36.3125,-61.625,-0.05810547,0.1503906,-0.8852539,-0.01660156,-0.2119141,0.5751953
4121,79.4375,35,-60.1875,-0.04248047,0.1582031,-0.8735352,-0.01660156,-0.2119141,0.5751953
4125,78.9375,33.8125,-58.9375,-0.01123047,0.1582031,-0.8657227,-0.01806641,-0.2104492,0.5742188
4129,78.125,32.4375,-58.375,0,0.1660156,-0.8466797,-0.01660156,-0.206543,0.5766602
4133,77.5,30.875,-58.5625,0.0078125,0.1660156,-0.8354492,-0.01660156,-0.206543,0.5766602
4137,77.1875,29.1875,-59.375,0.01953125,0.1699219,-0.8354492,-0.01416016,-0.2026367,0.5766602
4141,76.125,27.375,-60.625,0.02734375,0.1738281,-0.831543,-0.015625,-0.1987305,0.5820313
4145,74.9375,26.0625,-62.625,0.015625,0.1777344,-0.8085938,-0.015625,-0.1987305,0.5820313
4149,72.9375,25,-65.4375,0.015625,0.1777344,-0.8046875,-0.015625,-0.1958008,0.5795898
4153,71.3125,24.25,-67.875,0.015625,0.1738281,-0.7929688,-0.01416016,-0.1918945,0.5834961
4157,70.125,23.75,-70.25,0.00390625,0.1582031,-0.7929688,-0.01416016,-0.1918945,0.5834961
4162,60.25,23.4375,-67.5625,0.05859375,0.09960938,-0.7167969,-0.01171875,-0.1777344,0.5834961
4166,58.75,23.25,-64.5,0.078125,0.09179688,-0.7011719,-0.01025391,-0.1748047,0.5844727
4170,57,22.8125,-61.0625,0.1010742,0.09179688,-0.6972656,-0.01269531,-0.1733398,0.5888672
4174,55.8125,22,-57.5,0.112793,0.08007813,-0.6933594,-0.01269531,-0.1733398,0.5888672
4178,54.875,20.625,-54.375,0.128418,0.07617188,-0.6860352,-0.01269531,-0.1694336,0.5859375
4182,54,19.3125,-51.5,0.1362305,0.06054688,-0.6821289,-0.009277344,-0.1669922,0.5874023
4186,53.4375,17.25,-48.375,0.144043,0.04492188,-0.6669922,-0.009277344,-0.1669922,0.5874023
4190,52.4375,15.3125,-45.25,0.1635742,0.02929688,-0.6552734,-0.01025391,-0.1655273,0.5888672
4194,51.625,12.8125,-42.4375,0.1674805,0.02148438,-0.6401367,-0.01171875,-0.1616211,0.5888672
4198,50.75,10.0625,-40.1875,0.1713867,0.005859375,-0.6401367,-0.01171875,-0.1616211,0.5888672
4202,49.5,7.375,-38,0.1791992,-0.005371094,-0.628418,-0.01025391,-0.1591797,0.5898438
4206,46.6875,4.3125,-35.0625,0.1831055,-0.04833984,-0.6323242,-0.01025391,-0.1577148,0.5898438
4210,44.5,2.8125,-34.625,0.1713867,-0.06396484,-0.6054688,-0.01025391,-0.1577148,0.5898438
4214,43.1875,-0.0625,-35.0625,0.159668,0.005859375,-0.6171875,-0.01171875,-0.15625,0.5888672
4218,41.0625,-3.9375,-35.375,0.1518555,-0.03662109,-0.6401367,-0.0078125,-0.1538086,0.5898438
4222,37.4375,-6.875,-34,0.144043,-0.06787109,-0.6323242,-0.0078125,-0.1538086,0.5898438
4226,33.5,-9.375,-33.625,0.1362305,-0.08349609,-0.6171875,-0.009277344,-0.1508789,0.5913086
4230,29.875,-11.125,-33.625,0.1088867,-0.07958984,-0.6132813,-0.0078125,-0.1508789,0.5913086
4234,26.0625,-12.9375,-34,0.1088867,-0.08349609,-0.6245117,-0.0078125,-0.1508789,0.5913086
4238,22.375,-13.875,-34.75,0.09716797,-0.07177734,-0.6171875,-0.005371094,-0.1508789,0.5942383
4242,17.0625,-14.25,-35.75,0.08544922,-0.06005859,-0.6206055,-0.006835938,-0.1484375,0.5898438
4246,11.75,-14.4375,-36,0.0625,-0.07958984,-0.628418,-0.006835938,-0.1484375,0.5898438
4250,6.5625,-14.375,-35.4375,0.05859375,-0.07568359,-0.6245117,-0.006835938,-0.1499023,0.5898438
4254,2.125,-13.8125,-34.3125,0.0390625,-0.07568359,-0.6245117,-0.001464844,-0.1469727,0.5927734
4258,-2.0625,-14,-31.5625,0.03515625,-0.08740234,-0.6171875,-0.001464844,-0.1469727,0.5927734
4262,-6.375,-14.125,-27.5625,0.015625,-0.09130859,-0.628418,-0.004394531,-0.1455078,0.5927734
4266,-10.5625,-14.3125,-22.875,0.01171875,-0.1108398,-0.6206055,-0.002929688,-0.1455078,0.5913086
4271,-36.3125,-7.5625,9.5625,-0.007324219,-0.07958984,-0.6591797,-0.0004882813,-0.1508789,0.5927734
4275,-40.1875,-6.625,13.6875,-0.01123047,-0.07177734,-0.6860352,-0.0004882813,-0.1508789,0.5927734
4279,-43.0625,-5.8125,17.125,-0.02294922,-0.05615234,-0.6933594,-0.001464844,-0.1508789,0.5913086
4283,-45.5625,-5.125,19.75,-0.02294922,-0.04443359,-0.7089844,-0.001464844,-0.1523438,0.5898438
4287,-48.125,-4.3125,22.25,-0.03076172,-0.03271484,-0.7202148,-0.001464844,-0.1523438,0.5898438
4291,-50.5,-3.25,24.3125,-0.02294922,-0.01708984,-0.7358398,-0.0004882813,-0.15625,0.5888672
4295,-52.6875,-2.9375,26.75,-0.02294922,-0.005371094,-0.7470703,0.0004882813,-0.1577148,0.5898438
4299,-53.875,-2.8125,29.5,-0.03076172,-0.001464844,-0.7548828,0.0004882813,-0.1577148,0.5898438
4303,-54.6875,-2.875,32.3125,-0.02685547,0.001953125,-0.7548828,0.001464844,-0.1601563,0.5888672
4307,-55.3125,-2.375,35.5,-0.02685547,0.001953125,-0.7548828,-0.001464844,-0.1640625,0.5898438
4311,-57.125,-2.5,38.8125,-0.02685547,0.009765625,-0.7548828,-0.001464844,-0.1640625,0.5898438
4315,-59.625,-2,42.25,-0.02294922,0.02539063,-0.7700195,-0.001464844,-0.1669922,0.5898438
4319,-62.5,-2.1875,45.4375,-0.01513672,0.04101563,-0.777832,-0.001464844,-0.168457,0.5898438
4323,-65.5,-2.4375,47.75,-0.01123047,0.05664063,-0.7817383,-0.001464844,-0.168457,0.5898438
4327,-67.6875,-2.6875,49.5,-0.01123047,0.06445313,-0.7890625,-0.0004882813,-0.1694336,0.5898438
4331,-69.6875,-3.8125,51.25,-0.01123047,0.06445313,-0.796875,-0.001464844,-0.1748047,0.5888672
4335,-71,-4.5,52.4375,-0.01123047,0.08007813,-0.8046875,-0.001464844,-0.1748047,0.5888672
4339,-71.75,-5.25,53.6875,-0.01513672,0.07617188,-0.7929688,-0.001464844,-0.1787109,0.5898438
4343,-73.0625,-5.6875,54,-0.003417969,0.08398438,-0.8007813,-0.004394531,-0.1816406,0.5888672
4347,-73.375,-6.5,53.8125,-0.003417969,0.1035156,-0.815918,-0.004394531,-0.1816406,0.5888672
4351,-73.6875,-7.5,52.125,-0.01904297,0.1230469,-0.831543,-0.002929688,-0.1826172,0.5888672
4355,-73.0625,-8.9375,50.5625,-0.03076172,0.1347656,-0.8466797,-0.004394531,-0.1894531,0.5874023
4359,-72.125,-10.375,48.125,-0.05029297,0.1503906,-0.8505859,-0.004394531,-0.1894531,0.5874023
4363,-71.1875,-11.375,46.3125,-0.06201172,0.1464844,-0.8505859,-0.005371094,-0.1918945,0.5874023
4367,-71,-11.75,44.625,-0.06982422,0.1542969,-0.8657227,-0.002929688,-0.1958008,0.5874023
4371,-71.125,-12.125,43.4375,-0.08544922,0.1582031,-0.8735352,-0.002929688,-0.1958008,0.5874023
4375,-71.875,-12.375,43.25,-0.09716797,0.1582031,-0.8813477,-0.005371094,-0.2001953,0.5844727
4380,-87.4375,-2.875,54.625,-0.08544922,0.1582031,-0.9155273,-0.005371094,-0.2172852,0.5834961
4384,-91.625,0.375,58.5625,-0.08154297,0.1582031,-0.9155273,-0.0078125,-0.2226563,0.5805664
4388,-95.4375,3.3125,62.875,-0.07373047,0.1660156,-0.9233398,-0.0078125,-0.2226563,0.5805664
4392,-98.125,5.4375,66.8125,-0.05810547,0.1816406,-0.9194336,-0.01171875,-0.2290039,0.5795898
4396,-99.4375,6.9375,69.875,-0.04638672,0.2011719,-0.9155273,-0.01025391,-0.234375,0.5795898
4400,-100.0625,7.4375,72.5,-0.03076172,0.2285156,-0.9155273,-0.01025391,-0.234375,0.5795898
4404,-100.5625,7.625,74.25,-0.01513672,0.2441406,-0.9194336,-0.01269531,-0.2397461,0.5751953
4408,-100.8125,6.8125,74.9375,0.0078125,0.2680664,-0.9311523,-0.015625,-0.2436523,0.5742188
4412,-100.75,4.875,74.25,0.03515625,0.2875977,-0.9501953,-0.015625,-0.2436523,0.5742188
4416,-98.625,1.3125,72.0625,0.0390625,0.3071289,-0.9501953,-0.01904297,-0.2504883,0.5698242
4420,-94.3125,-3.625,69.625,0.02734375,0.2915039,-0.9614258,-0.01904297,-0.2568359,0.5698242
4424,-86.0625,-9.9375,66.8125,0.01953125,0.2758789,-0.9614258,-0.01904297,-0.2568359,0.5698242
4428,-76.5625,-19.75,58.25,0,0.2836914,-0.965332,-0.02050781,-0.2636719,0.5644531
4432,-65.8125,-25.625,53.125,-0.01123047,0.2836914,-0.965332,-0.02148438,-0.2675781,0.5634766
4436,-63.125,-31.1875,49.25,-0.03466797,0.3149414,-1.015137,-0.02148438,-0.2675781,0.5634766
4440,-62.6875,-34.9375,44.6875,-0.06982422,0.3110352,-1.041992,-0.02392578,-0.2729492,0.559082
4444,-63.1875,-37.5,41.5,-0.08154297,0.2993164,-1.041992,-0.02539063,-0.2783203,0.5551758
4448,-63.9375,-39.375,40.875,-0.1206055,0.2758789,-1.061035,-0.02539063,-0.2783203,0.5551758
4452,-65.5,-39.75,42.1875,-0.1401367,0.2524414,-1.057129,-0.02685547,-0.2822266,0.5527344
4456,-67.5,-38.875,44.6875,-0.159668,0.2480469,-1.072754,-0.02685547,-0.2875977,0.5498047
4460,-69.4375,-37.125,46.6875,-0.1791992,0.2602539,-1.080078,-0.02685547,-0.2875977,0.5498047
4464,-71.375,-35.0625,48.1875,-0.1948242,0.2758789,-1.091797,-0.02929688,-0.2885742,0.543457
4468,-73.1875,-32.625,48.75,-0.1870117,0.2915039,-1.129883,-0.02929688,-0.2915039,0.5366211
4472,-75.375,-30.1875,48.125,-0.1791992,0.3188477,-1.149414,-0.02929688,-0.2915039,0.5366211
4476,-77.5,-27.0625,45.5625,-0.1713867,0.3540039,-1.145508,-0.03271484,-0.2978516,0.5341797
4480,-79.1875,-24.9375,42.4375,-0.1635742,0.3618164,-1.156738,-0.03417969,-0.2993164,0.5288086
4484,-79,-23.375,39,-0.1635742,0.3696289,-1.168457,-0.03417969,-0.2993164,0.5288086
4489,-51.25,-20.375,32.9375,-0.175293,0.3422852,-1.168457,-0.04052734,-0.3071289,0.5073242
4493,-48.3125,-20.1875,35.75,-0.1791992,0.3266602,-1.183594,-0.04150391,-0.3071289,0.5019531
4497,-46,-19.6875,39.1875,-0.1791992,0.3227539,-1.191406,-0.04296875,-0.3061523,0.4980469
4501,-44.375,-19.5625,42.8125,-0.1713867,0.3110352,-1.19873,-0.04296875,-0.3061523,0.4980469
4505,-43.3125,-19.75,45.5625,-0.1791992,0.3032227,-1.206543,-0.04541016,-0.3046875,0.4936523
4509,-41.5625,-20.375,47.125,-0.1713867,0.3110352,-1.229492,-0.04785156,-0.3032227,0.4897461
4513,-40.25,-21.5625,47.625,-0.1674805,0.2993164,-1.241211,-0.04785156,-0.3032227,0.4897461
4517,-39.25,-22.375,46.5,-0.1635742,0.2993164,-1.241211,-0.04785156,-0.3032227,0.4858398
4521,-38.125,-23.1875,43.5625,-0.1674805,0.3110352,-1.260254,-0.04882813,-0.3017578,0.4833984
4525,-37.3125,-24.0625,39.25,-0.1674805,0.3149414,-1.283203,-0.04882813,-0.3017578,0.4833984
4529,-36.1875,-24.8125,34.3125,-0.1791992,0.3149414,-1.287109,-0.05273438,-0.2978516,0.4790039
4533,-35.8125,-25.6875,28.6875,-0.1870117,0.3227539,-1.306152,-0.05175781,-0.2978516,0.4765625
4537,-35.625,-26.25,22.9375,-0.2026367,0.3188477,-1.306152,-0.05175781,-0.2978516,0.4765625
4541,-35.4375,-26,17.9375,-0.2182617,0.3188477,-1.325195,-0.05419922,-0.2954102,0.4726563
4545,-35.0625,-25.4375,13.3125,-0.2299805,0.3149414,-1.321289,-0.05273438,-0.2929688,0.4697266
4549,-34.1875,-24.6875,10.25,-0.2495117,0.3188477,-1.333008,-0.05273438,-0.2929688,0.4697266
4553,-33.25,-23.875,8.5625,-0.2646484,0.3227539,-1.348145,-0.05517578,-0.2885742,0.4682617
4557,-31.5625,-22.9375,7.0625,-0.2724609,0.3305664,-1.355957,-0.05273438,-0.2875977,0.4658203
4561,-29.5625,-22,6.8125,-0.2841797,0.3500977,-1.359863,-0.05273438,-0.2875977,0.4658203
4565,-26.9375,-21,6.625,-0.2880859,0.3696289,-1.375,-0.05029297,-0.2861328,0.4672852
4569,-24.125,-20.0625,6.375,-0.2919922,0.3891602,-1.378906,-0.05273438,-0.2861328,0.4672852
4573,-20.5625,-19.4375,6.625,-0.2880859,0.4008789,-1.386719,-0.05273438,-0.2861328,0.4672852
4577,-16.4375,-19.5625,6.5625,-0.2958984,0.4165039,-1.382813,-0.05273438,-0.284668,0.4643555
4581,-11.5625,-20.1875,6.25,-0.2998047,0.4243164,-1.394043,-0.05273438,-0.2822266,0.4643555
4585,-5.6875,-21.1875,5.75,-0.2998047,0.4282227,-1.382813,-0.05273438,-0.2822266,0.4643555
4589,1.0625,-22.75,4.6875,-0.3037109,0.4243164,-1.375,-0.05175781,-0.2836914,0.4643555
4593,8.125,-24.3125,3.4375,-0.3193359,0.4086914,-1.367188,-0.05273438,-0.2768555,0.4628906
4598,34.5625,-21.75,14.5,-0.4169922,0.2285156,-1.325195,-0.05029297,-0.2714844,0.4697266
4602,42.125,-21.625,12.5,-0.4013672,0.2167969,-1.306152,-0.05029297,-0.2714844,0.4697266
4606,47.8125,-21.25,10.5625,-0.3896484,0.2207031,-1.291016,-0.04882813,-0.2729492,0.4726563
4610,49.5,-20,9.0625,-0.3896484,0.2167969,-1.317871,-0.05029297,-0.2729492,0.4736328
4614,47.625,-18.8125,8.0625,-0.3857422,0.2011719,-1.333008,-0.05029297,-0.2729492,0.4736328
4618,44.5625,-16.5,7.0625,-0.3779297,0.1816406,-1.310059,-0.04882813,-0.2700195,0.4750977
4622,42.4375,-13.8125,4.9375,-0.3740234,0.1738281,-1.294922,-0.04785156,-0.2700195,0.4765625
4626,42.5,-11.3125,2.25,-0.3662109,0.1699219,-1.287109,-0.04785156,-0.2700195,0.4765625
4630,43.8125,-8.9375,-0.9375,-0.3583984,0.1660156,-1.283203,-0.04882813,-0.269043,0.4804688
4634,45.6875,-7,-4.25,-0.3505859,0.1738281,-1.287109,-0.04882813,-0.269043,0.4790039
4638,46.75,-5.625,-7.4375,-0.3466797,0.1660156,-1.287109,-0.04882813,-0.269043,0.4790039
4642,48.1875,-4.25,-10.5625,-0.3349609,0.1660156,-1.275391,-0.04882813,-0.2661133,0.4819336
4646,49,-2.75,-13.0625,-0.3310547,0.1699219,-1.275391,-0.04785156,-0.269043,0.484375
4650,49.9375,-1,-15.4375,-0.3232422,0.1738281,-1.271484,-0.04785156,-0.269043,0.484375
4654,50.5,0.4375,-18,-0.3232422,0.1738281,-1.271484,-0.04638672,-0.269043,0.4873047
4658,51.1875,2.125,-20.6875,-0.3154297,0.1855469,-1.268066,-0.04638672,-0.2675781,0.4882813
4662,52.0625,3.1875,-23.625,-0.3115234,0.1972656,-1.279297,-0.04638672,-0.2675781,0.4882813
4666,53.625,3.9375,-26.8125,-0.3154297,0.2128906,-1.271484,-0.04541016,-0.2661133,0.4912109
4670,55.75,4,-30.0625,-0.3193359,0.2128906,-1.271484,-0.04541016,-0.2661133,0.4926758
4674,58.6875,3.3125,-33.25,-0.3154297,0.2050781,-1.26416,-0.04541016,-0.2661133,0.4926758
4678,62.6875,2.375,-35.5625,-0.3271484,0.1933594,-1.271484,-0.04394531,-0.2661133,0.4926758
4682,66.8125,1.125,-37,-0.3349609,0.1816406,-1.260254,-0.04394531,-0.2636719,0.496582
4686,70.375,0.375,-38.0625,-0.3232422,0.1582031,-1.260254,-0.04394531,-0.2636719,0.496582
4690,73.5625,-0.75,-38.8125,-0.3193359,0.1464844,-1.245117,-0.04150391,-0.2675781,0.4980469
4694,75.75,-1.9375,-39.6875,-0.3271484,0.1347656,-1.248535,-0.04052734,-0.2651367,0.503418
4698,78.1875,-2.8125,-40.6875,-0.3310547,0.1191406,-1.248535,-0.04052734,-0.2651367,0.503418
4702,79.8125,-4.1875,-41.9375,-0.3271484,0.1035156,-1.256348,-0.03759766,-0.2636719,0.5058594
4707,84.6875,-8.5625,-57.5625,-0.3037109,0.04101563,-1.218262,-0.03027344,-0.2607422,0.519043
4711,83.8125,-7.6875,-60.9375,-0.3076172,0.03320313,-1.210449,-0.02929688,-0.2597656,0.5234375
4715,82.4375,-6.375,-64,-0.3115234,0.02148438,-1.218262,-0.02929688,-0.2597656,0.5234375
4719,80.8125,-4.3125,-65.8125,-0.3232422,0.01367188,-1.222168,-0.02783203,-0.2583008,0.5258789
4723,78.5,-1.25,-66.4375,-0.3271484,-0.005371094,-1.195313,-0.02392578,-0.2558594,0.5297852
4727,75.75,2.1875,-65.875,-0.3310547,-0.01318359,-1.191406,-0.02392578,-0.2558594,0.5297852
4731,72.625,5.625,-64.5625,-0.3271484,-0.01318359,-1.1875,-0.02148438,-0.2543945,0.5327148
4735,69.375,9.625,-62.125,-0.3310547,-0.03271484,-1.179688,-0.01904297,-0.2529297,0.5351563
4739,65.6875,13.6875,-58.625,-0.3310547,-0.03662109,-1.172363,-0.01904297,-0.2529297,0.5351563
4743,61.875,17.75,-54.25,-0.3232422,-0.03662109,-1.164551,-0.01660156,-0.2514648,0.5390625
4747,58,22.1875,-50.125,-0.3154297,-0.03271484,-1.168457,-0.015625,-0.2504883,0.5444336
4751,54,26.375,-45.875,-0.3037109,-0.02490234,-1.164551,-0.015625,-0.2504883,0.5444336
4755,50.375,31.5625,-41.8125,-0.2841797,-0.01318359,-1.156738,-0.015625,-0.2490234,0.5458984
4759,46.6875,35.75,-37.875,-0.2880859,0.001953125,-1.164551,-0.01171875,-0.2490234,0.5512695
4763,44.625,39.125,-35.25,-0.2880859,0.01367188,-1.175781,-0.01171875,-0.2490234,0.5512695
4767,42.625,41.4375,-33.375,-0.2880859,0.02539063,-1.195313,-0.01171875,-0.246582,0.5566406
4771,41.375,43,-32.5,-0.2763672,0.04101563,-1.214355,-0.01025391,-0.2451172,0.5566406
4775,40.75,43.6875,-32.1875,-0.2646484,0.04882813,-1.19873,-0.01025391,-0.2451172,0.5566406
4779,40.375,44.375,-32.6875,-0.2607422,0.05664063,-1.1875,-0.009277344,-0.2421875,0.5605469
4783,40.6875,45.125,-33.9375,-0.237793,0.06445313,-1.19873,-0.01025391,-0.2412109,0.5605469
4787,41.25,45.5625,-35.75,-0.2260742,0.07617188,-1.183594,-0.01025391,-0.2412109,0.5605469
4791,42.25,46.375,-37.9375,-0.222168,0.08007813,-1.1875,-0.0078125,-0.2382813,0.565918
4795,43.125,46.125,-40.875,-0.2104492,0.09179688,-1.1875,-0.009277344,-0.234375,0.5673828
4799,44.6875,45.6875,-43.8125,-0.1987305,0.1074219,-1.1875,-0.009277344,-0.234375,0.5673828
4803,46.125,44.6875,-46.3125,-0.1870117,0.1074219,-1.172363,-0.0078125,-0.2319336,0.5688477
4807,47.3125,43.4375,-47.75,-0.1674805,0.1035156,-1.160645,-0.006835938,-0.2319336,0.5712891
4811,48.375,41.9375,-47.8125,-0.159668,0.1074219,-1.145508,-0.006835938,-0.2319336,0.5712891
4816,44.4375,31.75,-47.625,-0.06201172,0.1269531,-1.07666,-0.006835938,-0.2158203,0.5820313
4820,43,29.6875,-48.5625,-0.04248047,0.1230469,-1.072754,-0.002929688,-0.2094727,0.5834961
4824,42.125,28.125,-49,-0.02294922,0.1230469,-1.053711,-0.001464844,-0.206543,0.5844727
4828,41.375,27.1875,-50.125,-0.01904297,0.1386719,-1.038086,-0.001464844,-0.206543,0.5844727
4832,40.9375,26.5,-52.375,0.0078125,0.1699219,-1.041992,-0.002929688,-0.2041016,0.5859375
4836,39.75,25.6875,-56.3125,0.015625,0.2207031,-1.045898,-0.002929688,-0.2001953,0.5874023
4840,38.625,24.25,-62.3125,0.02734375,0.2719727,-1.045898,-0.002929688,-0.2001953,0.5874023
4844,37.25,22.375,-70.0625,0.03125,0.3149414,-1.045898,-0.001464844,-0.1958008,0.5888672
4848,36.5625,20.375,-78.0625,0.02734375,0.3422852,-1.045898,-0.0004882813,-0.1933594,0.5859375
4852,37.5,18.125,-85.1875,0.01953125,0.3540039,-1.015137,-0.0004882813,-0.1933594,0.5859375
4856,39.6875,15.75,-91.375,0.015625,0.3422852,-1.003906,-0.0004882813,-0.1894531,0.5874023
4860,42.5625,13.75,-95.8125,0.0078125,0.3344727,-0.9882813,0.0004882813,-0.1870117,0.5874023
4864,44.875,11.875,-99.0625,0.0078125,0.3227539,-0.9614258,0.0004882813,-0.1870117,0.5874023
4868,46.625,10.125,-101.0625,0,0.2993164,-0.9541016,0.0004882813,-0.1826172,0.5874023
4872,48,8.6875,-101.375,-0.003417969,0.2719727,-0.9272461,0.002929688,-0.1762695,0.5859375
4876,49.25,7.5,-99.5625,-0.01123047,0.2363281,-0.8964844,0.002929688,-0.1762695,0.5859375
4880,49.5625,6.8125,-95.5625,-0.01123047,0.2050781,-0.8735352,0.002929688,-0.1748047,0.5874023
4884,49.8125,6.6875,-90.5,-0.003417969,0.1777344,-0.8466797,0.00390625,-0.1708984,0.5874023
4888,49.875,7.1875,-84.6875,-0.01123047,0.1660156,-0.8125,0.00390625,-0.1708984,0.5874023
4892,48.875,7.875,-79.375,0.00390625,0.1582031,-0.8046875,0.005371094,-0.168457,0.5874023
4896,47.875,8.25,-74.625,0.01953125,0.1621094,-0.796875,0.005371094,-0.1630859,0.5874023
4900,46.4375,8.5,-71.0625,0.0234375,0.1542969,-0.7856445,0.005371094,-0.1630859,0.5874023
4904,45.8125,8.125,-68.25,0.015625,0.1542969,-0.7626953,0.005371094,-0.1616211,0.5874023
4908,45.875,6.875,-65.75,0.02734375,0.1269531,-0.7509766,0.006347656,-0.1601563,0.5888672
4912,46.4375,5.625,-63.375,0.01953125,0.1152344,-0.7431641,0.006347656,-0.1601563,0.5888672
4916,46.625,4.5,-59.9375,0.0234375,0.09570313,-0.7241211,0.0078125,-0.1577148,0.5834961
4920,45.9375,4.0625,-56.875,0.02734375,0.07617188,-0.7050781,0.008789063,-0.1538086,0.5859375
4925,33.125,4.6875,-40,0.0234375,-0.01708984,-0.6362305,0.008789063,-0.1445313,0.5888672
4929,32,4.75,-38,0.03125,-0.02880859,-0.6171875,0.008789063,-0.1445313,0.5888672
4933,30.75,4.4375,-36.3125,0.0390625,-0.03662109,-0.6171875,0.0078125,-0.1430664,0.5844727
4937,29.1875,4.5,-34.5,0.05078125,-0.04443359,-0.6054688,0.0078125,-0.1445313,0.5859375
4941,26.8125,4.625,-32.25,0.06640625,-0.04443359,-0.5942383,0.0078125,-0.1445313,0.5859375
4945,24.6875,4.6875,-30.875,0.06640625,-0.04443359,-0.5864258,0.006347656,-0.1391602,0.5874023
4949,22.1875,4.4375,-28,0.07421875,-0.05615234,-0.5825195,0.0078125,-0.1391602,0.5859375
4953,19.75,4.3125,-25.375,0.078125,-0.05615234,-0.5825195,0.0078125,-0.1391602,0.5859375
4957,17.6875,4.5,-22.4375,0.078125,-0.05224609,-0.590332,0.0078125,-0.1391602,0.5844727
4961,16.125,4.25,-19.8125,0.078125,-0.05224609,-0.5786133,0.008789063,-0.1362305,0.5888672
4965,14.8125,3.9375,-17.375,0.08203125,-0.04443359,-0.5864258,0.008789063,-0.1362305,0.5888672
4969,14.4375,2.75,-15.5625,0.07421875,-0.04052734,-0.5825195,0.0078125,-0.1362305,0.5844727
4973,13.6875,2.5,-14.125,0.0625,-0.02099609,-0.5786133,0.0078125,-0.1376953,0.5844727
4977,13.4375,1.4375,-13.5625,0.0546875,-0.01708984,-0.590332,0.0078125,-0.1376953,0.5844727
4981,13.9375,0.3125,-13.4375,0.04296875,-0.01708984,-0.5976563,0.008789063,-0.1362305,0.5844727
4985,14.625,-0.875,-13.375,0.046875,-0.02880859,-0.5942383,0.006347656,-0.1352539,0.5844727
4989,15.1875,-1.8125,-12.4375,0.04296875,-0.04833984,-0.590332,0.006347656,-0.1352539,0.5844727
4993,15.125,-2.625,-10.75,0.04296875,-0.06396484,-0.574707,0.006347656,-0.1352539,0.5859375
4997,14.375,-2.875,-7.6875,0.0390625,-0.08740234,-0.5556641,0.008789063,-0.1352539,0.5888672
5001,13.0625,-3.125,-3.75,0.05078125,-0.1147461,-0.5634766,0.008789063,-0.1352539,0.5888672
5005,11.625,-3.4375,0.5625,0.0390625,-0.1381836,-0.5556641,0.01025391,-0.1376953,0.5859375
5009,10.8125,-3.875,4.5,0.04296875,-0.1459961,-0.5556641,0.008789063,-0.1352539,0.5888672
5013,9.25,-5.3125,8,0.0390625,-0.1459961,-0.5595703,0.008789063,-0.1352539,0.5888672
5017,7.3125,-6.8125,11.3125,0.04296875,-0.1499023,-0.5595703,0.01025391,-0.1352539,0.5888672
5021,4.0625,-8.125,13.5625,0.0390625,-0.1499023,-0.5556641,0.0078125,-0.1352539,0.5898438
5025,0.9375,-9.9375,15.5,0.02734375,-0.1733398,-0.5595703,0.0078125,-0.1352539,0.5898438
5029,-2.375,-11.4375,17.5625,0.02734375,-0.1967773,-0.574707,0.006347656,-0.1352539,0.5859375
5034,-25.4375,-19.3125,26.6875,0.01953125,-0.2124023,-0.6054688,0.008789063,-0.1362305,0.5844727
5038,-29,-21,26.4375,0.0078125,-0.1967773,-0.6362305,0.01025391,-0.1391602,0.5859375
5042,-33.25,-23.1875,26.125,-0.003417969,-0.1811523,-0.6591797,0.01025391,-0.1391602,0.5859375
5046,-38.125,-25,25.75,-0.02294922,-0.1694336,-0.6743164,0.01025391,-0.140625,0.5888672
5050,-43,-27,24.9375,-0.03076172,-0.1538086,-0.6821289,0.01171875,-0.1430664,0.5844727
5054,-48.25,-28.6875,24.625,-0.03466797,-0.1499023,-0.6782227,0.01171875,-0.1430664,0.5844727
5058,-52.875,-29.25,24.9375,-0.05419922,-0.1420898,-0.6899414,0.01171875,-0.1455078,0.5859375
5062,-57.625,-29.6875,25.6875,-0.07373047,-0.1342773,-0.6933594,0.01416016,-0.1455078,0.5859375
5066,-62.125,-29.1875,27.4375,-0.08935547,-0.1147461,-0.7089844,0.01416016,-0.1455078,0.5859375
5070,-66.0625,-28.4375,30.3125,-0.09326172,-0.09912109,-0.7128906,0.01269531,-0.1484375,0.5859375
5074,-70.25,-26.8125,33.3125,-0.1010742,-0.07177734,-0.7202148,0.01269531,-0.1523438,0.5834961
5078,-74.4375,-24.625,36.0625,-0.1049805,-0.03662109,-0.7280273,0.01269531,-0.1523438,0.5834961
5082,-78.0625,-22.4375,38.1875,-0.1049805,-0.001464844,-0.7470703,0.01513672,-0.1538086,0.5844727
5086,-80.1875,-20.75,39.875,-0.1088867,0.03320313,-0.7548828,0.01660156,-0.1577148,0.5859375
5090,-81.75,-19.1875,41.25,-0.1049805,0.06835938,-0.7739258,0.01660156,-0.1577148,0.5859375
5094,-82.3125,-17.9375,42.8125,-0.112793,0.08398438,-0.7817383,0.01416016,-0.1601563,0.5805664
5098,-82.125,-16.375,44.125,-0.112793,0.1230469,-0.777832,0.01660156,-0.1640625,0.5805664
5102,-79.9375,-15.5625,44.25,-0.128418,0.1582031,-0.7890625,0.01660156,-0.1640625,0.5805664
5106,-77.5625,-15.3125,44.9375,-0.1479492,0.1660156,-0.8085938,0.01660156,-0.168457,0.5834961
5110,-74.875,-14.9375,46.4375,-0.1479492,0.1699219,-0.8427734,0.01660156,-0.1723633,0.5820313
5114,-73.1875,-14.9375,48.0625,-0.1557617,0.1699219,-0.831543,0.01660156,-0.1723633,0.5820313
5118,-71,-15,50.0625,-0.1401367,0.1816406,-0.8657227,0.01660156,-0.1748047,0.5805664
5122,-69.75,-15.375,53.5,-0.144043,0.1621094,-0.8735352,0.01660156,-0.1801758,0.5805664
5126,-69.25,-15.3125,57.875,-0.1362305,0.1464844,-0.8735352,0.01660156,-0.1801758,0.5805664
5130,-70.9375,-15,63.0625,-0.1245117,0.1308594,-0.8813477,0.01660156,-0.1816406,0.5805664
5134,-72.8125,-14.375,68.5625,-0.1245117,0.1230469,-0.8886719,0.01660156,-0.1879883,0.5795898
5138,-75.875,-13.5,73.6875,-0.1166992,0.1230469,-0.8852539,0.01660156,-0.1879883,0.5795898
5143,-99.3125,-4.1875,92.8125,-0.1206055,0.2050781,-0.9272461,0.01269531,-0.206543,0.5766602
5147,-98.4375,-4.125,88.875,-0.128418,0.2524414,-0.9462891,0.01269531,-0.2119141,0.5751953
5151,-95.9375,-5.0625,83.3125,-0.144043,0.2875977,-0.9692383,0.008789063,-0.21875,0.5751953
5155,-93.25,-6.75,77.5625,-0.1479492,0.3032227,-0.9731445,0.008789063,-0.21875,0.5751953
5159,-88.9375,-9.25,72.125,-0.1479492,0.3149414,-0.9882813,0.008789063,-0.2265625,0.5742188
5163,-84,-12.5,67.4375,-0.144043,0.3149414,-0.980957,0.0078125,-0.2304688,0.5712891
5167,-79.375,-16.5,63.1875,-0.1362305,0.3305664,-0.984375,0.0078125,-0.2304688,0.5712891
5171,-74.125,-20.875,59.6875,-0.1401367,0.3227539,-0.9921875,0.006347656,-0.2358398,0.5727539
5175,-69.375,-25.375,57.5,-0.1362305,0.3032227,-1.015137,0.005371094,-0.2421875,0.5673828
5179,-65.9375,-29.5,57.1875,-0.1362305,0.2797852,-1.026855,0.005371094,-0.2421875,0.5673828
5183,-64.0625,-31.75,58.125,-0.1323242,0.2719727,-1.026855,0.005371094,-0.246582,0.5673828
5187,-63.5625,-32.625,59.1875,-0.144043,0.2680664,-1.022949,0.005371094,-0.2514648,0.5644531
5191,-63.75,-33.625,60.375,-0.1518555,0.2641602,-1.045898,0.005371094,-0.2514648,0.5644531
5195,-63.875,-34.1875,62.1875,-0.1635742,0.2563477,-1.061035,0.002929688,-0.2568359,0.5620117
5199,-63.9375,-34.3125,63.9375,-0.1674805,0.2480469,-1.068848,0.001464844,-0.2651367,0.5605469
5203,-64.6875,-33.6875,66.3125,-0.1831055,0.2363281,-1.083984,0.001464844,-0.2651367,0.5605469
5207,-66.25,-31.8125,68.9375,-0.1870117,0.2363281,-1.091797,0.001464844,-0.2661133,0.5581055
5211,-68.6875,-29.625,71.5625,-0.1870117,0.2402344,-1.11084,-0.0004882813,-0.2714844,0.5551758
5215,-71.4375,-27.25,73.9375,-0.1870117,0.2480469,-1.114746,-0.0004882813,-0.2714844,0.5551758
5219,-74.4375,-24.1875,75.625,-0.190918,0.2641602,-1.129883,-0.002929688,-0.2768555,0.5488281
5223,-77.1875,-21.375,76.5,-0.1870117,0.2719727,-1.137695,-0.006835938,-0.2807617,0.5405273
5227,-79.25,-18.9375,77.4375,-0.206543,0.2836914,-1.141602,-0.006835938,-0.2807617,0.5405273
5231,-80.5,-17.0625,78.1875,-0.2104492,0.2875977,-1.149414,-0.006835938,-0.284668,0.543457
5235,-80.9375,-15.9375,78.875,-0.2104492,0.2915039,-1.149414,-0.0078125,-0.2900391,0.5366211
5239,-80.5625,-14.5625,79.5,-0.2104492,0.2875977,-1.141602,-0.0078125,-0.2900391,0.5366211
5243,-79.5625,-12.875,79.5625,-0.2026367,0.2954102,-1.141602,-0.01269531,-0.2939453,0.5297852
5247,-78.375,-11.5625,78.875,-0.206543,0.3071289,-1.149414,-0.015625,-0.2993164,0.5244141
5252,-63.5625,-16.1875,69.3125,-0.2026367,0.3227539,-1.202637,-0.02685547,-0.3061523,0.5043945
5256,-60.5625,-17.8125,69.0625,-0.2143555,0.3032227,-1.222168,-0.02685547,-0.3061523,0.5043945
5260,-58.375,-18.4375,69.6875,-0.2143555,0.2993164,-1.210449,-0.03027344,-0.3061523,0.4980469
5264,-57.0625,-18.25,70.3125,-0.2338867,0.2993164,-1.233398,-0.03271484,-0.3046875,0.4936523
5268,-55.9375,-17.3125,70.625,-0.237793,0.3149414,-1.245117,-0.03271484,-0.3046875,0.4936523
5272,-55.5,-16.125,70.4375,-0.2416992,0.3305664,-1.260254,-0.03662109,-0.3017578,0.4882813
5276,-55,-14.1875,69.0625,-0.2416992,0.3540039,-1.279297,-0.03759766,-0.3046875,0.4833984
