Time (s),Gyroscope X (deg/s),Gyroscope Y (deg/s),Gyroscope Z (deg/s),Accelerometer X (g),Accelerometer Y (g),Accelerometer Z (g),Magnetometer X (uT),Magnetometer Y (uT),Magnetometer Z (uT),Barometer (hPa)
0.000000000,-0.1127371,0.1097761,0.0756669,-0.4734146,0.1257318,0.8521937,27.69852,-43.4191,-30.02297,1001.555
0.002497196,0.01118713,0.1693354,-0.0467335,-0.4704687,0.1248049,0.8507656,27.69852,-43.4191,-30.02297,1001.555
0.004994869,-0.05077496,0.1097761,0.0144667,-0.4763494,0.1255979,0.8469421,27.70485,-43.78799,-30.01654,1001.555
0.007492065,-0.1127371,-0.06890184,-0.0467335,-0.4719732,0.1266437,0.845499,27.70485,-43.78799,-30.01654,1001.555
0.009989262,-0.1127371,0.1097761,-0.0467335,-0.4749438,0.1290458,0.8483496,27.70485,-43.78799,-30.01654,1001.555
0.012486458,-0.2366612,0.1693354,-0.1079337,-0.4719432,0.1252458,0.849808,27.70485,-43.78799,-30.01654,1001.555
0.014983177,-0.2366612,-0.06890184,-0.0467335,-0.4728971,0.1243315,0.855547,27.70485,-43.78799,-30.01654,1001.555
0.017480850,-0.2366612,-0.2475797,-0.1079337,-0.4699612,0.1238706,0.8526826,27.70485,-43.78799,-30.01654,1001.555
0.019978046,-0.2986233,0.05021676,-0.2915343,-0.4744142,0.1272118,0.8555273,27.70485,-43.78799,-30.01654,1001.555
0.022475243,-0.3605854,0.1097761,-0.1079337,-0.4695656,0.1286503,0.8464386,27.70485,-43.78799,-30.01654,1001.555
0.024972439,-0.1127371,0.05021676,-0.0467335,-0.470993,0.1267163,0.8493192,27.70485,-43.78799,-30.01654,1001.555
0.027470112,-0.2366612,0.1693354,-0.1079337,-0.4700187,0.1267051,0.8469304,27.70485,-43.78799,-30.01654,1001.555
0.029967308,-0.2986233,0.1693354,-0.1691339,-0.4738356,0.1218067,0.8498336,27.70485,-43.78799,-30.01654,1001.555
0.032464504,-0.2986233,-0.1284611,-0.1079337,-0.4758681,0.1255053,0.8392999,27.70485,-43.78799,-30.01654,1001.555
0.034961700,-0.05077496,-0.06890184,-0.1079337,-0.4729394,0.1261632,0.8474137,27.70485,-43.78799,-30.01654,1001.555
0.037459373,0.07314922,0.05021676,-0.1691339,-0.4724469,0.1256239,0.8426406,27.70485,-43.78799,-30.01654,1001.555
0.039956570,0.07314922,-0.00934254,0.0144667,-0.47389,0.1246863,0.8474247,27.70485,-43.78799,-30.01654,1001.555
0.042453766,-0.05077496,-0.06890184,0.1368671,-0.4754099,0.1281356,0.8536108,27.70485,-43.78799,-30.01654,1001.555
0.044950485,-0.1746991,-0.00934254,-0.1079337,-0.471998,0.1281189,0.8469215,27.70485,-43.78799,-30.01654,1001.555
0.047447681,-0.05077496,-0.00934254,-0.1079337,-0.4689795,0.1233548,0.8488644,27.70485,-43.78799,-30.01654,1001.555
0.049944878,-0.1127371,0.05021676,-0.1079337,-0.4724676,0.1271572,0.8483616,27.70485,-43.78799,-30.01654,1001.555
0.052442551,0.07314922,0.1097761,-0.0467335,-0.4739229,0.1266532,0.8493214,27.70485,-43.78799,-30.01654,1001.555
0.054939747,-0.1746991,-0.06890184,0.1368671,-0.4690737,0.1287124,0.8502592,27.70485,-43.78799,-30.01654,1001.555
0.057436943,-0.2366612,0.1097761,-0.0467335,-0.4689837,0.1239045,0.8536372,27.70485,-43.78799,-30.01654,1001.552
0.059934139,-0.2986233,-0.06890184,-0.0467335,-0.4690256,0.1257426,0.8459814,27.70485,-43.78799,-30.01654,1001.552
0.062431812,-0.4225475,0.1097761,0.0144667,-0.4749356,0.1285541,0.8478754,27.70485,-43.78799,-30.01654,1001.552
0.064929008,-0.2986233,0.3480133,-0.1691339,-0.4749321,0.1286056,0.8516964,27.70485,-43.78799,-30.01654,1001.552
0.067426205,-0.1127371,0.1097761,-0.0467335,-0.4729254,0.1257552,0.8531485,27.70485,-43.78799,-30.01654,1001.552
0.069923401,-0.05077496,0.1097761,-0.1691339,-0.474442,0.1286419,0.8536065,27.70485,-43.78799,-30.01654,1001.552
0.072420120,-0.1127371,0.2288947,-0.0467335,-0.4729897,0.1291007,0.8493034,27.70485,-43.78799,-30.01654,1001.552
0.074917316,-0.1127371,0.2288947,-0.2303341,-0.4695135,0.1257385,0.8464594,27.70485,-43.78799,-30.01654,1001.552
0.077414989,-0.2986233,0.1693354,-0.1691339,-0.4684861,0.1228284,0.8450466,27.70485,-43.78799,-30.01654,1001.552
0.079912186,-0.05077496,0.3480133,-0.2915343,-0.4739182,0.1261099,0.8450263,27.70485,-43.78799,-30.01654,1001.552
0.082409382,-0.1127371,0.3480133,-0.0467335,-0.473393,0.1242115,0.8474278,27.70485,-43.78799,-30.01654,1001.552
0.084906578,0.01118713,0.1693354,-0.0467335,-0.4748998,0.12724,0.8583934,27.70485,-43.78799,-30.01654,1001.552
0.087404251,0.01118713,0.1097761,-0.1691339,-0.4676259,0.1303286,0.8598001,27.70485,-43.78799,-30.01654,1001.552
0.089901447,0.01118713,0.288454,-0.2303341,-0.4704956,0.1262479,0.8498,27.70485,-43.78799,-30.01654,1001.552
0.092398644,0.07314922,0.3480133,-0.2303341,-0.4753306,0.1231731,0.8455257,27.70485,-43.78799,-30.01654,1001.552
0.094895840,0.1351113,0.288454,-0.1079337,-0.4738813,0.124201,0.8474282,27.70485,-43.78799,-30.01654,1001.552
0.097393513,0.1351113,0.4075725,-0.0467335,-0.467548,0.1253468,0.8502823,27.70485,-43.78799,-30.01654,1001.554
0.099890709,0.3209976,0.7053691,-0.0467335,-0.4734099,0.1251885,0.8478985,27.70485,-43.78799,-30.01654,1001.554
0.102387428,0.1970734,0.4671319,-0.1079337,-0.4743679,0.1242163,0.849339,27.70485,-43.78799,-30.01654,1001.554
0.104884625,0.1351113,0.4671319,-0.1079337,-0.4753961,0.1271135,0.8497967,27.69836,-43.4276,-30.46943,1001.554
0.107381821,0.07314922,0.1097761,-0.1079337,-0.4700443,0.1281674,0.8473977,27.69836,-43.4276,-30.46943,1001.554
0.109879017,0.1351113,0.1693354,-0.1079337,-0.4738882,0.124712,0.8493352,27.69836,-43.4276,-30.46943,1001.554
0.112376690,0.1970734,0.288454,-0.1691339,-0.4714685,0.1256707,0.8445504,27.69836,-43.4276,-30.46943,1001.554
0.114873886,0.2590355,0.2288947,-0.0467335,-0.4684994,0.123857,0.8493382,27.69836,-43.4276,-30.46943,1001.554
0.117371082,0.2590355,0.2288947,-0.0467335,-0.4744433,0.1286226,0.8521736,27.69836,-43.4276,-30.46943,1001.554
0.119868279,0.1351113,0.05021676,-0.1079337,-0.4714861,0.127249,0.8536147,27.69836,-43.4276,-30.46943,1001.554
0.122365952,0.07314922,0.1097761,-0.0467335,-0.4758697,0.1260937,0.8469383,27.69836,-43.4276,-30.46943,1001.554
0.124863148,0.1970734,0.2288947,0.0144667,-0.4767682,0.121705,0.8469701,27.69836,-43.4276,-30.46943,1001.554
0.127360344,0.1970734,0.1097761,0.0144667,-0.4714297,0.1237875,0.8488627,27.69836,-43.4276,-30.46943,1001.554
0.129857063,0.2590355,-0.06890184,0.0756669,-0.47491,0.1270918,0.8474082,27.69836,-43.4276,-30.46943,1001.554
0.132354260,0.1351113,-0.00934254,0.0144667,-0.4729552,0.1265454,0.8397683,27.69836,-43.4276,-30.46943,1001.554
0.134851933,0.1351113,0.288454,-0.1691339,-0.4704371,0.1228186,0.8474361,27.69836,-43.4276,-30.46943,1001.554
0.137349129,0.1970734,0.1693354,-0.1079337,-0.4686014,0.1297128,0.8516847,27.69836,-43.4276,-30.46943,1001.548
0.139846325,0.07314922,0.05021676,0.0144667,-0.4719993,0.1280996,0.8454886,27.69836,-43.4276,-30.46943,1001.548
0.142343521,-0.05077496,0.05021676,0.0144667,-0.4695204,0.1262496,0.8483664,27.69836,-43.4276,-30.46943,1001.548
0.144841194,-0.1127371,-0.06890184,-0.0467335,-0.4724555,0.1261092,0.8426371,27.69836,-43.4276,-30.46943,1001.548
0.147338390,-0.1746991,-0.00934254,-0.1079337,-0.4734733,0.1285469,0.8450087,27.69836,-43.4276,-30.46943,1001.548
0.149835587,-0.1746991,0.1693354,0.0144667,-0.4714558,0.1252434,0.8488523,27.69836,-43.4276,-30.46943,1001.548
0.152332783,-0.1746991,-0.06890184,0.0756669,-0.4743843,0.1251997,0.8502874,27.69836,-43.4276,-30.46943,1001.548
0.154830456,0.07314922,-0.00934254,0.0756669,-0.4743191,0.1218671,0.8550878,27.7047,-43.79527,-30.39923,1001.548
0.157327652,0.07314922,0.05021676,0.0144667,-0.4758706,0.1260808,0.845983,27.7047,-43.79527,-30.39923,1001.548
0.159824371,-0.1127371,-0.3071391,0.0756669,-0.4738266,0.1213279,0.8503147,27.7047,-43.79527,-30.39923,1001.548
0.162321568,-0.2366612,-0.1880204,0.0144667,-0.4714867,0.1266284,0.8435882,27.7047,-43.79527,-30.39923,1001.548
0.164818764,0.01118713,-0.2475797,-0.1079337,-0.4739468,0.1281414,0.8516991,27.7047,-43.79527,-30.39923,1001.548
0.167315960,-0.1746991,-0.1284611,-0.1079337,-0.4744017,0.1261703,0.8502805,27.7047,-43.79527,-30.39923,1001.548
0.169813633,-0.05077496,-0.1880204,-0.0467335,-0.4670935,0.1273114,0.8512233,27.7047,-43.79527,-30.39923,1001.548
0.172310829,-0.1746991,-0.1880204,0.0144667,-0.4733781,0.1238164,0.854118,27.7047,-43.79527,-30.39923,1001.548
0.174808025,-0.3605854,-0.1880204,-0.0467335,-0.4720185,0.1290444,0.8435712,27.7047,-43.79527,-30.39923,1001.548
0.177305222,-0.05077496,-0.00934254,-0.0467335,-0.469592,0.1300997,0.8459506,27.7047,-43.79527,-30.39923,1001.552
0.179802895,-0.1127371,-0.00934254,0.0144667,-0.471507,0.1281681,0.8497869,27.7047,-43.79527,-30.39923,1001.552
0.182300091,-0.2366612,-0.3071391,-0.1079337,-0.4753692,0.1256705,0.8507623,27.7047,-43.79527,-30.39923,1001.552
0.184797287,-0.4225475,-0.1880204,-0.0467335,-0.4749599,0.1300357,0.8497756,27.7047,-43.79527,-30.39923,1001.552
0.187294006,-0.2986233,-0.00934254,0.0144667,-0.4729421,0.1261245,0.844548,27.7047,-43.79527,-30.39923,1001.552
0.189791203,-0.1746991,-0.1880204,0.0144667,-0.4734529,0.1276215,0.8483589,27.7047,-43.79527,-30.39923,1001.552
0.192288399,-0.2366612,-0.06890184,-0.0467335,-0.4695373,0.1272266,0.8488371,27.7047,-43.79527,-30.39923,1001.552
0.194786072,-0.2366612,-0.06890184,-0.0467335,-0.4695112,0.1257707,0.8488474,27.7047,-43.79527,-30.39923,1001.552
0.197283268,-0.2366612,-0.00934254,0.0144667,-0.4675862,0.1272364,0.8464475,27.7047,-43.79527,-30.39923,1001.552
0.199780464,-0.1746991,0.05021676,-0.1691339,-0.4753424,0.1236133,0.842179,27.7047,-43.79527,-30.39923,1001.552
0.202277660,-0.2986233,-0.06890184,-0.1079337,-0.4744331,0.1275489,0.8445387,27.7047,-43.79527,-30.39923,1001.552
0.204775333,-0.4225475,-0.3666984,0.0144667,-0.4759449,0.1298923,0.8407016,27.69852,-43.4191,-30.02297,1001.552
0.207272530,-0.3605854,-0.1880204,-0.1079337,-0.4734729,0.1285534,0.8454862,27.69852,-43.4191,-30.02297,1001.552
0.209769726,-0.1746991,-0.2475797,-0.1691339,-0.4748784,0.1251055,0.8440787,27.69852,-43.4191,-30.02297,1001.552
0.212266922,-0.1746991,-0.2475797,-0.1691339,-0.4709888,0.1261665,0.8445466,27.69852,-43.4191,-30.02297,1001.552
0.214764595,-0.1746991,-0.06890184,-0.1691339,-0.4720162,0.1290766,0.8459593,27.69852,-43.4191,-30.02297,1001.552
0.217261314,-0.4845096,-0.1284611,-0.1691339,-0.4715066,0.1281745,0.8502645,27.69852,-43.4191,-30.02297,1001.552
0.219758511,-0.4845096,-0.1284611,-0.1079337,-0.4665698,0.1247794,0.8426431,27.69852,-43.4191,-30.02297,1001.552
0.222255707,-0.4845096,-0.1284611,-0.1691339,-0.4675589,0.1257999,0.8478907,27.69852,-43.4191,-30.02297,1001.552
0.224752903,-0.4845096,0.05021676,-0.1079337,-0.4699908,0.1252749,0.8488513,27.69852,-43.4191,-30.02297,1001.552
0.227250099,-0.4845096,0.05021676,-0.1691339,-0.4740015,0.1310145,0.8488126,27.69852,-43.4191,-30.02297,1001.552
0.229747772,-0.5464717,0.1693354,-0.0467335,-0.4730122,0.1306082,0.8531139,27.69852,-43.4191,-30.02297,1001.552
0.232244968,-0.7323579,-0.1880204,-0.1691339,-0.4705203,0.1277231,0.8512225,27.69852,-43.4191,-30.02297,1001.552
0.234742165,-0.7323579,-0.06890184,-0.2915343,-0.4719203,0.1237448,0.846475,27.69852,-43.4191,-30.02297,1001.552
0.237239361,-0.4225475,-0.06890184,-0.2303341,-0.4743896,0.1251224,0.844556,27.69852,-43.4191,-30.02297,1001.552
0.239737034,-0.2986233,0.2288947,-0.1691339,-0.4694865,0.1242955,0.847425,27.69852,-43.4191,-30.02297,1001.552
0.242234230,-0.3605854,0.1097761,-0.1079337,-0.4728924,0.1237882,0.8512519,27.69852,-43.4191,-30.02297,1001.552
0.244730949,-0.2986233,0.05021676,-0.1079337,-0.4679984,0.1234402,0.8536399,27.69852,-43.4191,-30.02297,1001.552
0.247228145,-0.3605854,0.1693354,-0.1079337,-0.4714467,0.1247646,0.8493334,27.69852,-43.4191,-30.02297,1001.552
0.249725342,-0.2986233,0.05021676,-0.1079337,-0.4724086,0.1237343,0.8464754,27.69852,-43.4191,-30.02297,1001.552
0.252223015,-0.3605854,-0.1284611,-0.1079337,-0.4763598,0.1260574,0.8450282,27.69852,-43.4191,-30.02297,1001.552
0.254720211,-0.4225475,0.1097761,-0.1079337,-0.4729646,0.127632,0.8483585,28.07223,-43.78735,-30.39999,1001.552
0.257217407,-0.6703959,0.1693354,-0.0467335,-0.473892,0.1252682,0.8545855,28.07223,-43.78735,-30.39999,1001.551
0.259714603,-0.7323579,0.05021676,-0.1691339,-0.4709423,0.1237851,0.8479071,28.07223,-43.78735,-30.39999,1001.551
0.262212276,-0.2986233,0.1097761,-0.1691339,-0.473478,0.1290902,0.8493037,28.07223,-43.78735,-30.39999,1001.551
0.264709472,0.2590355,0.1693354,-0.0467335,-0.4681291,0.1307132,0.8531103,28.07223,-43.78735,-30.39999,1001.551
0.267206669,0.01118713,0.4075725,-0.0467335,-0.4695515,0.1282423,0.8521735,28.07223,-43.78735,-30.39999,1001.551
0.269703865,-0.2986233,0.4671319,0.0144667,-0.472369,0.121864,0.851743,28.07223,-43.78735,-30.39999,1001.551
0.272201538,-0.1746991,0.1097761,-0.0467335,-0.4728551,0.1218857,0.8541315,28.07223,-43.78735,-30.39999,1001.551
0.274697780,0.3209976,0.2288947,-0.0467335,-0.4704135,0.1219382,0.8541297,28.07223,-43.78735,-30.39999,1001.551
0.277195453,0.3829597,0.3480133,0.1368671,-0.4714505,0.1253207,0.8545837,28.07223,-43.78735,-30.39999,1001.551
0.279692650,0.5068839,0.3480133,0.0144667,-0.4728945,0.1243702,0.8584127,28.07223,-43.78735,-30.39999,1001.551
0.282189846,0.4449218,0.288454,0.0756669,-0.4772894,0.1236615,0.8488671,28.07223,-43.78735,-30.39999,1001.551
0.284687042,0.3829597,0.4671319,0.1980673,-0.4718973,0.1222438,0.843142,28.07223,-43.78735,-30.39999,1001.551
0.287184715,0.5068839,0.3480133,0.0756669,-0.4753211,0.1227007,0.8464845,28.07223,-43.78735,-30.39999,1001.551
0.289681911,0.9406185,0.4671319,0.1368671,-0.477802,0.1251327,0.8507676,28.07223,-43.78735,-30.39999,1001.551
0.292179108,1.002581,0.4671319,0.1368671,-0.4758292,0.1242363,0.8531611,28.07223,-43.78735,-30.39999,1001.551
0.294676304,1.064543,0.4075725,0.1368671,-0.4733721,0.1232924,0.8512557,28.07223,-43.78735,-30.39999,1001.551
0.297173977,1.126505,0.4075725,0.1980673,-0.4754017,0.1276439,0.8531365,28.07223,-43.78735,-30.39999,1001.551
0.299671173,1.436315,0.4671319,0.1980673,-0.4734015,0.1253109,0.8569733,28.07223,-43.78735,-30.39999,1001.551
0.302167892,1.560239,0.5862505,0.1368671,-0.4719488,0.1257762,0.8531478,28.07223,-43.78735,-30.39999,1001.551
0.304665088,1.932012,0.4671319,0.1368671,-0.4729198,0.1252248,0.8498087,27.33732,-43.79591,-30.01578,1001.551
0.307162285,2.613595,0.5862505,0.1980673,-0.4758076,0.122716,0.8483953,27.33732,-43.79591,-30.01578,1001.551
0.309659481,3.728912,0.6458098,0.2592675,-0.4811911,0.1236483,0.8541238,27.33732,-43.79591,-30.01578,1001.551
0.312157154,4.596382,0.884047,0.3204677,-0.4856304,0.1265751,0.8622258,27.33732,-43.79591,-30.01578,1001.551
0.314654350,4.968154,0.6458098,0.2592675,-0.4823137,0.1325109,0.8650475,27.33732,-43.79591,-30.01578,1001.551
0.317151546,4.906192,0.6458098,0.2592675,-0.4794226,0.1344571,0.8607329,27.33732,-43.79591,-30.01578,1001.551
0.319648743,4.782268,0.9436063,0.2592675,-0.4666442,0.1298128,0.8559819,27.33732,-43.79591,-30.01578,1001.551
0.322146416,5.773662,1.062725,0.3204677,-0.4709576,0.1241738,0.8407394,27.33732,-43.79591,-30.01578,1001.551
0.324643612,6.579169,0.884047,0.3204677,-0.4770643,0.1381922,0.8458972,27.33732,-43.79591,-30.01578,1001.551
0.327140808,5.835624,0.5266911,0.3204677,-0.4756539,0.141711,0.8525586,27.33732,-43.79591,-30.01578,1001.551
0.329638004,4.906192,0.288454,0.1368671,-0.4730643,0.1335199,0.8530932,27.33732,-43.79591,-30.01578,1001.551
0.332134724,4.720306,0.3480133,0.0144667,-0.4732763,0.1173464,0.8422225,27.33732,-43.79591,-30.01578,1001.551
0.334632397,4.906192,0.288454,0.1980673,-0.4737864,0.1182421,0.8374398,27.33732,-43.79591,-30.01578,1001.551
0.337129593,5.15404,0.288454,0.1980673,-0.4729069,0.1241898,0.8450394,27.33732,-43.79591,-30.01578,1001.551
0.339626789,5.030117,0.5266911,0.1368671,-0.4715284,0.1290807,0.8454813,27.33732,-43.79591,-30.01578,1001.553
0.342123985,4.84423,0.2288947,0.2592675,-0.4774457,0.1323968,0.8488048,27.33732,-43.79591,-30.01578,1001.553
0.344621181,4.100685,-0.06890184,0.2592675,-0.4675978,0.1282908,0.8526496,27.33732,-43.79591,-30.01578,1001.553
0.347118854,3.728912,-0.00934254,0.1368671,-0.464159,0.1268311,0.8469261,27.33732,-43.79591,-30.01578,1001.553
0.349616051,3.66695,0.05021676,0.0756669,-0.4709278,0.1221617,0.8354995,27.33732,-43.79591,-30.01578,1001.553
0.352113247,3.604988,0.05021676,0.2592675,-0.4733961,0.1241664,0.8440845,27.33732,-43.79591,-30.01578,1001.553
0.354610443,4.038723,0.1693354,0.2592675,-0.4705842,0.1310751,0.8478549,27.69838,-43.42638,-30.40565,1001.553
0.357110023,4.100685,0.288454,0.1368671,-0.4657459,0.1335873,0.8464012,27.69838,-43.42638,-30.40565,1001.553
0.359604835,3.852837,0.2288947,0.1980673,-0.4711676,0.1364093,0.8482949,27.69838,-43.42638,-30.40565,1001.553
0.362102032,3.543026,0.2288947,0.1980673,-0.4780004,0.1363138,0.8521209,27.69838,-43.42638,-30.40565,1001.553
0.364599228,3.66695,0.288454,0.1980673,-0.4788143,0.1270399,0.8497992,27.69838,-43.42638,-30.40565,1001.553
0.417042255,15.25386,2.730385,0.8712695,-0.5243225,0.1277357,0.7939342,27.71133,-44.14838,-29.56365,1001.551
0.419538975,17.23665,1.420081,0.9324697,-0.477013,0.1371036,0.8731319,27.71133,-44.14838,-29.56365,1001.554
0.422036171,14.20051,-0.4262576,0.9324697,-0.442253,0.1910234,0.9276581,27.71133,-44.14838,-29.56365,1001.554
0.424533367,7.074865,-0.00934254,0.2592675,-0.4518158,0.1772593,0.8943254,27.71133,-44.14838,-29.56365,1001.554
0.427030563,3.66695,0.8244877,-0.3527345,-0.4576626,0.1181163,0.8383865,27.71133,-44.14838,-29.56365,1001.554
0.429528236,4.410495,0.5862505,-0.4751349,-0.4628097,0.1035277,0.8088784,27.71133,-44.14838,-29.56365,1001.554
0.432027340,6.207396,0.288454,-0.4751349,-0.4632801,0.1031672,0.8189121,27.71133,-44.14838,-29.56365,1001.554
0.434522629,6.950941,0.1693354,-0.3527345,-0.4572963,0.1249145,0.8378601,27.71133,-44.14838,-29.56365,1001.554
0.437019825,6.765055,0.1097761,-0.2303341,-0.4597834,0.1550254,0.8424234,27.71133,-44.14838,-29.56365,1001.554
0.439517498,5.525813,0.1097761,-0.1691339,-0.4525732,0.1620802,0.8500114,27.71133,-44.14838,-29.56365,1001.554
0.442014694,3.914799,0.05021676,-0.2915343,-0.4583462,0.1571012,0.8500503,27.71133,-44.14838,-29.56365,1001.554
0.444511890,2.613595,0.1693354,-0.6587355,-0.4645004,0.1451048,0.8343766,27.71133,-44.14838,-29.56365,1001.554
0.447008610,2.117898,0.1693354,-0.7199357,-0.4667968,0.1361559,0.8225002,27.71133,-44.14838,-29.56365,1001.554
0.449505806,2.055936,-0.2475797,-0.9035363,-0.4692281,0.1362516,0.8334872,27.71133,-44.14838,-29.56365,1001.554
0.452003002,1.684164,-0.1284611,-0.8423361,-0.4658901,0.1412747,0.8406144,27.71133,-44.14838,-29.56365,1001.554
0.454500675,0.9406185,-0.3666984,-0.9035363,-0.459087,0.1439965,0.8515773,27.71766,-44.51727,-29.55723,1001.554
0.456997871,-0.1746991,-0.2475797,-1.087137,-0.46378,0.133202,0.8507017,27.71766,-44.51727,-29.55723,1001.554
0.459495067,-1.166093,-0.1880204,-1.148337,-0.4662482,0.1339848,0.8406667,27.71766,-44.51727,-29.55723,1001.554
0.461992264,-1.413941,-0.1284611,-1.087137,-0.465744,0.1323912,0.8296914,27.71766,-44.51727,-29.55723,1001.554
0.464489937,-0.9182442,-0.3666984,-0.9647365,-0.4652406,0.1313989,0.8273098,27.71766,-44.51727,-29.55723,1001.554
0.466987133,-0.6703959,-0.4262576,-0.9035363,-0.4658703,0.1397286,0.8339381,27.71766,-44.51727,-29.55723,1001.554
0.469484329,-1.166093,-0.4262576,-1.087137,-0.4639868,0.1442607,0.8429803,27.71766,-44.51727,-29.55723,1001.554
0.471981525,-1.413941,-0.485817,-1.148337,-0.4682145,0.1343636,0.8358884,27.71766,-44.51727,-29.55723,1001.554
0.474479198,-1.785713,-0.5453762,-1.087137,-0.4716209,0.1338499,0.8392378,27.71766,-44.51727,-29.55723,1001.554
0.476975918,-2.219448,-0.6644948,-1.087137,-0.4715159,0.1280392,0.8402345,27.71766,-44.51727,-29.55723,1001.554
0.479473114,-2.219448,-0.6049355,-1.148337,-0.4666775,0.1305514,0.8387807,27.71766,-44.51727,-29.55723,1001.554
0.481970310,-2.157486,-0.5453762,-1.087137,-0.4642885,0.1335093,0.8382806,27.71766,-44.51727,-29.55723,1001.554
0.484467506,-2.28141,-0.3071391,-1.025937,-0.4627891,0.1322073,0.8473646,27.71766,-44.51727,-29.55723,1001.554
0.486965179,-2.467297,-0.4262576,-1.087137,-0.4681923,0.1334639,0.8411492,27.71766,-44.51727,-29.55723,1001.554
0.489462376,-2.529259,-0.6049355,-1.025937,-0.4720672,0.1313936,0.8378226,27.71766,-44.51727,-29.55723,1001.554
0.491959572,-2.715145,-0.3666984,-0.9035363,-0.4710266,0.1280626,0.8411894,27.71766,-44.51727,-29.55723,1001.554
0.494456768,-2.653183,-0.3071391,-0.9035363,-0.4647697,0.1336019,0.8459228,27.71766,-44.51727,-29.55723,1001.554
0.496954441,-2.715145,-0.485817,-0.7199357,-0.4671714,0.1310713,0.8421209,27.71766,-44.51727,-29.55723,1001.554
0.499451637,-2.653183,-0.3666984,-0.6587355,-0.4740656,0.1337523,0.8358963,27.71766,-44.51727,-29.55723,1001.552
0.501948833,-2.467297,-0.485817,-0.7199357,-0.4707471,0.1397138,0.8406284,27.71766,-44.51727,-29.55723,1001.552
0.504445553,-2.529259,-0.4262576,-0.6587355,-0.4739946,0.1305034,0.8469056,27.3503,-44.51669,-29.11,1001.552
0.506942749,-2.777107,-0.4262576,-0.7199357,-0.4735054,0.1305268,0.8478605,27.3503,-44.51669,-29.11,1001.552
0.509439945,-2.777107,-0.4262576,-0.5363351,-0.4740963,0.1357515,0.8401809,27.3503,-44.51669,-29.11,1001.552
0.511937618,-2.529259,-0.4262576,-0.5363351,-0.4716145,0.1333324,0.8368531,27.3503,-44.51669,-29.11,1001.552
0.514434814,-2.405334,-0.3666984,-0.4751349,-0.4740417,0.1322642,0.8335185,27.3503,-44.51669,-29.11,1001.552
0.516932011,-2.467297,-0.6049355,-0.3527345,-0.4717273,0.1396412,0.8368081,27.3503,-44.51669,-29.11,1001.552
0.519429207,-2.715145,-0.6644948,-0.4139347,-0.4711854,0.1373735,0.8478103,27.3503,-44.51669,-29.11,1001.552
0.521926880,-2.839069,-0.4262576,-0.4139347,-0.4716846,0.137816,0.8454191,27.3503,-44.51669,-29.11,1001.552
0.524424076,-3.086917,-0.4262576,-0.4139347,-0.4707536,0.1402313,0.843013,27.3503,-44.51669,-29.11,1001.552
0.526921272,-3.272804,-0.6644948,-0.5363351,-0.4741622,0.1396854,0.8439742,27.3503,-44.51669,-29.11,1001.552
0.529418468,-3.396728,-0.7240542,-0.5975353,-0.4747249,0.1434864,0.8386931,27.3503,-44.51669,-29.11,1001.552
0.531916141,-3.706538,-0.7240542,-0.7199357,-0.4678077,0.1393044,0.8415849,27.3503,-44.51669,-29.11,1001.552
0.534412384,-3.892425,-0.7240542,-0.7199357,-0.4658371,0.1383758,0.8415904,27.3503,-44.51669,-29.11,1001.552
0.536910057,-4.326159,-0.7240542,-0.7811359,-0.4643353,0.1364984,0.8439912,27.3503,-44.51669,-29.11,1001.552
0.539407253,-4.264197,-0.7240542,-0.8423361,-0.4722317,0.1406207,0.8382345,27.3503,-44.51669,-29.11,1001.544
0.541904449,-4.450083,-0.6644948,-0.9035363,-0.4677986,0.1388256,0.842066,27.3503,-44.51669,-29.11,1001.544
0.544401646,-4.697932,-0.7836134,-0.8423361,-0.4706368,0.1339804,0.8473566,27.3503,-44.51669,-29.11,1001.544
0.546899319,-4.94578,-0.902732,-0.8423361,-0.4696459,0.1329857,0.8440194,27.3503,-44.51669,-29.11,1001.544
0.549396515,-5.069705,-0.7240542,-1.025937,-0.4672391,0.1349795,0.8440037,27.3503,-44.51669,-29.11,1001.544
0.551893711,-5.007742,-0.6049355,-1.025937,-0.4667946,0.13741,0.8435085,27.3503,-44.51669,-29.11,1001.544
0.554390907,-5.069705,-0.7836134,-1.025937,-0.4624181,0.1384622,0.8425431,27.71782,-44.50877,-29.11076,1001.544
0.556888580,-5.565401,-0.7240542,-1.025937,-0.4585341,0.1400537,0.8463508,27.71782,-44.50877,-29.11076,1001.544
0.559385776,-5.937174,-0.3071391,-1.025937,-0.4661834,0.1306457,0.8449894,27.71782,-44.50877,-29.11076,1001.544
0.561882973,-5.751287,-0.5453762,-1.025937,-0.4666183,0.1277427,0.8464434,27.71782,-44.50877,-29.11076,1001.544
0.564379692,-5.875212,-0.4262576,-0.9647365,-0.4690452,0.126681,0.8435864,27.71782,-44.50877,-29.11076,1001.544
0.566876888,-5.999136,-0.00934254,-0.7811359,-0.4738722,0.1237221,0.8479093,27.71782,-44.50877,-29.11076,1001.544
0.569374084,-6.061098,-0.2475797,-0.8423361,-0.4705108,0.1272507,0.8521811,27.71782,-44.50877,-29.11076,1001.544
0.571871757,-6.12306,-0.1284611,-0.7811359,-0.4690407,0.1267454,0.8483626,27.71782,-44.50877,-29.11076,1001.544
0.574368954,-6.061098,-0.06890184,-0.5975353,-0.4754713,0.1309121,0.8435599,27.71782,-44.50877,-29.11076,1001.544
0.576866150,-5.81325,-0.1284611,-0.6587355,-0.4853248,0.1355485,0.843055,27.71782,-44.50877,-29.11076,1001.544
0.579363346,-5.379515,-0.1284611,-0.5975353,-0.4823774,0.1352551,0.8526086,27.71782,-44.50877,-29.11076,1001.543
0.581865787,-5.441477,-0.1880204,-0.5975353,-0.4769321,0.1315527,0.8574085,27.71782,-44.50877,-29.11076,1001.543
0.584358215,-5.627363,-0.4262576,-0.5975353,-0.4768128,0.1247263,0.8550688,27.71782,-44.50877,-29.11076,1001.543
0.586855411,-6.061098,-0.3071391,-0.5363351,-0.4772828,0.1237581,0.8560314,27.71782,-44.50877,-29.11076,1001.543
0.589352608,-6.494833,-0.1880204,-0.5363351,-0.4797408,0.1246891,0.8569815,27.71782,-44.50877,-29.11076,1001.543
0.591849327,-6.680719,-0.4262576,-0.2915343,-0.47047,0.1247856,0.8493327,27.71782,-44.50877,-29.11076,1001.543
0.594347000,-6.246984,-0.4262576,-0.2303341,-0.4670173,0.1223038,0.8397951,27.71782,-44.50877,-29.11076,1001.543
0.596844196,-5.503439,-0.1880204,-0.1079337,-0.4841174,0.1218008,0.8297778,27.71782,-44.50877,-29.11076,1001.543
0.599341392,-4.078311,0.1097761,-0.1079337,-0.4870685,0.1232646,0.8350233,27.71782,-44.50877,-29.11076,1001.543
0.601838589,-2.839069,-0.2475797,0.0756669,-0.4759227,0.1289926,0.8459622,27.71782,-44.50877,-29.11076,1001.543
0.604336262,-3.14888,-0.1284611,0.2592675,-0.4721632,0.1379473,0.8559271,28.06605,-43.41118,-30.02373,1001.543
0.606833458,-3.768501,-0.00934254,0.2592675,-0.4765297,0.1364291,0.8583288,28.06605,-43.41118,-30.02373,1001.543
0.609330654,-3.706538,0.1693354,0.3204677,-0.4773202,0.1256607,0.8531518,28.06605,-43.41118,-30.02373,1001.543
0.611827850,-3.45869,-0.06890184,0.3204677,-0.4811508,0.1211767,0.8507977,28.06605,-43.41118,-30.02373,1001.543
0.614325523,-2.777107,-0.06890184,0.5040683,-0.4811356,0.1201739,0.8484166,28.06605,-43.41118,-30.02373,1001.543
0.616822719,-2.467297,-0.1880204,0.4428681,-0.4728802,0.1233545,0.8550763,28.06605,-43.41118,-30.02373,1001.543
0.619319439,-2.529259,-0.3666984,0.4428681,-0.4754595,0.1304719,0.8469067,28.06605,-43.41118,-30.02373,1001.543
0.621816635,-2.157486,-0.2475797,0.5040683,-0.4778307,0.1265499,0.8478914,28.06605,-43.41118,-30.02373,1001.541
0.624313831,-1.785713,-0.1880204,0.5652685,-0.4788243,0.1275059,0.8483629,28.06605,-43.41118,-30.02373,1001.541
0.626811027,-1.661789,-0.2475797,0.6876689,-0.472161,0.1379795,0.8583152,28.06605,-43.41118,-30.02373,1001.541
0.629308700,-1.9716,-0.3071391,0.5652685,-0.4780269,0.1377633,0.8516329,28.06605,-43.41118,-30.02373,1001.541
0.631805897,-2.405334,-0.4262576,0.5652685,-0.4868467,0.1395798,0.8564017,28.06605,-43.41118,-30.02373,1001.541
0.634303093,-2.901031,-0.6049355,0.5040683,-0.4735055,0.1317487,0.8664807,28.06605,-43.41118,-30.02373,1001.541
0.636800289,-3.14888,-0.7240542,0.3816679,-0.4676969,0.1335775,0.8487906,28.06605,-43.41118,-30.02373,1001.541
0.639297962,-2.962993,-0.2475797,0.5652685,-0.4744399,0.1268381,0.8278254,28.06605,-43.41118,-30.02373,1001.541
0.641795158,-1.661789,-0.06890184,0.7488691,-0.4762577,0.1189798,0.8240613,28.06605,-43.41118,-30.02373,1001.541
0.644292355,-0.2366612,-0.3071391,0.6264687,-0.4817942,0.1293067,0.8426198,28.06605,-43.41118,-30.02373,1001.541
0.646789551,-0.3605854,-0.1284611,0.8712695,-0.4730586,0.1336037,0.8593023,28.06605,-43.41118,-30.02373,1001.541
0.649286270,-1.351979,-0.00934254,0.6876689,-0.4771826,0.1456456,0.8587411,28.06605,-43.41118,-30.02373,1001.541
0.651783466,-1.847676,-0.06890184,0.6876689,-0.4774983,0.1353022,0.8483065,28.06605,-43.41118,-30.02373,1001.541
0.654281139,-1.661789,-0.2475797,0.6264687,-0.479782,0.1259259,0.8407321,28.06605,-43.41118,-30.02373,1001.541
0.656778335,-1.290017,-0.2475797,0.6876689,-0.4759062,0.1280091,0.845014,28.06605,-43.41118,-30.02373,1001.541
0.659275532,-1.104131,-0.3666984,0.6876689,-0.4759365,0.1300147,0.8497763,28.06605,-43.41118,-30.02373,1001.541
0.661772728,-1.166093,-0.3666984,0.5652685,-0.4769613,0.1329635,0.8540549,28.06605,-43.41118,-30.02373,1001.539
0.664270401,-1.475903,-0.3666984,0.6264687,-0.4783796,0.1305506,0.8574165,28.06605,-43.41118,-30.02373,1001.539
0.666767597,-1.909638,-0.1880204,0.3816679,-0.4671278,0.129259,0.8516871,28.06605,-43.41118,-30.02373,1001.539
0.669264793,-1.9716,-0.2475797,0.4428681,-0.4696072,0.1311025,0.8483318,28.06605,-43.41118,-30.02373,1001.539
0.671761990,-1.661789,-0.2475797,0.5652685,-0.476409,0.1284001,0.8388018,28.06605,-43.41118,-30.02373,1001.539
0.674259663,-1.290017,-0.2475797,0.4428681,-0.4735201,0.131536,0.8507193,28.06605,-43.41118,-30.02373,1001.539
0.676756859,-1.290017,-0.2475797,0.4428681,-0.4710216,0.1287477,0.8559921,28.06605,-43.41118,-30.02373,1001.539
0.679253578,-1.290017,-0.2475797,0.5040683,-0.4735284,0.1320278,0.8511935,28.06605,-43.41118,-30.02373,1001.539
0.681750774,-1.351979,-0.2475797,0.5040683,-0.4750545,0.1353869,0.8506927,28.06605,-43.41118,-30.02373,1001.539
0.684247971,-1.537865,-0.3666984,0.3816679,-0.4734963,0.1300479,0.8483416,28.06605,-43.41118,-30.02373,1001.539
0.686745167,-1.661789,-0.2475797,0.5040683,-0.4730596,0.1329767,0.8487981,28.06605,-43.41118,-30.02373,1001.539
0.689242840,-1.599827,-0.3071391,0.5040683,-0.4764293,0.1299398,0.8450005,28.06605,-43.41118,-30.02373,1001.539
0.691740036,-1.723751,-0.1284611,0.2592675,-0.4794116,0.1327821,0.8445043,28.06605,-43.41118,-30.02373,1001.539
0.694237232,-1.785713,-0.1880204,0.1980673,-0.4749559,0.1300937,0.8540741,28.06605,-43.41118,-30.02373,1001.539
0.696734428,-1.723751,-0.3666984,0.4428681,-0.4715161,0.1286469,0.8493057,28.06605,-43.41118,-30.02373,1001.539
0.699232101,-1.909638,-0.2475797,0.5040683,-0.4735341,0.131944,0.8449845,28.06605,-43.41118,-30.02373,1001.539
0.701729298,-1.661789,-0.3666984,0.3204677,-0.4746479,0.1397135,0.8468403,28.06605,-43.41118,-30.02373,1001.542
0.704226494,-1.909638,-0.5453762,0.1368671,-0.4716099,0.134011,0.8511782,27.70485,-43.78799,-30.01654,1001.542
0.706723213,-2.405334,-0.3666984,0.3816679,-0.470515,0.1278004,0.8569539,27.70485,-43.78799,-30.01654,1001.542
0.709220409,-2.405334,-0.2475797,0.2592675,-0.4711763,0.1368946,0.8482914,27.70485,-43.78799,-30.01654,1001.542
0.711718082,-2.653183,-0.1880204,-0.0467335,-0.4677975,0.1394526,0.8525701,27.70485,-43.78799,-30.01654,1001.542
0.714215279,-2.962993,-0.4262576,0.0144667,-0.4656495,0.1282619,0.8473944,27.70485,-43.78799,-30.01654,1001.542
0.716712475,-2.591221,-0.3666984,0.1980673,-0.4699984,0.1251654,0.8407318,27.70485,-43.78799,-30.01654,1001.542
0.719209671,-2.033562,-0.3666984,0.1980673,-0.4685769,0.1276234,0.8407134,27.70485,-43.78799,-30.01654,1001.542
0.721707344,-1.785713,-0.4262576,0.1980673,-0.4631284,0.1239661,0.8488566,27.70485,-43.78799,-30.01654,1001.542
0.724204540,-1.847676,-0.4262576,0.3816679,-0.4667663,0.1359863,0.8459069,27.70485,-43.78799,-30.01654,1001.542
0.726701736,-1.723751,-0.2475797,0.0144667,-0.4696346,0.1325391,0.8468886,27.70485,-43.78799,-30.01654,1001.542
0.729198933,-1.661789,-0.3666984,0.1368671,-0.4666578,0.1302272,0.8507246,27.70485,-43.78799,-30.01654,1001.542
0.731696606,-1.785713,-0.1284611,0.1980673,-0.4690414,0.1273467,0.8569562,27.70485,-43.78799,-30.01654,1001.542
0.734193802,-1.9716,-0.1880204,0.1368671,-0.4699586,0.1239092,0.8555483,27.70485,-43.78799,-30.01654,1001.542
0.736690521,-2.033562,-0.3666984,0.2592675,-0.4709323,0.1233192,0.8493434,27.70485,-43.78799,-30.01654,1001.542
0.739187717,-1.847676,-0.4262576,0.1980673,-0.4739494,0.1281027,0.8488334,27.70485,-43.78799,-30.01654,1001.542
0.741684914,-1.599827,-0.3666984,0.0144667,-0.4704965,0.126235,0.8488447,27.70485,-43.78799,-30.01654,1001.538
0.744182110,-1.413941,-0.4262576,0.1368671,-0.4704284,0.1223333,0.8474395,27.70485,-43.78799,-30.01654,1001.538
0.746679783,-1.537865,-0.485817,0.2592675,-0.4773794,0.1284693,0.8454891,27.70485,-43.78799,-30.01654,1001.538
0.749176979,-1.290017,-0.5453762,0.2592675,-0.473509,0.1304752,0.8440396,27.70485,-43.78799,-30.01654,1001.538
0.751674175,-1.228055,-0.6049355,0.1980673,-0.473452,0.1276343,0.8493141,27.70485,-43.78799,-30.01654,1001.538
0.754171371,-1.166093,-0.6644948,0.3204677,-0.4720213,0.1296135,0.8497769,27.71103,-44.16415,-30.3928,1001.538
0.756669044,-1.228055,-0.7240542,0.2592675,-0.471006,0.1277513,0.8540885,27.71103,-44.16415,-30.3928,1001.538
0.759166241,-1.413941,-0.7836134,0.3204677,-0.4734598,0.1281325,0.8502659,27.71103,-44.16415,-30.3928,1001.538
0.761663437,-1.723751,-0.485817,0.1368671,-0.4700394,0.1282383,0.8526515,27.71103,-44.16415,-30.3928,1001.538
0.764160633,-1.723751,-0.4262576,0.3204677,-0.4709608,0.1253506,0.8560163,27.71103,-44.16415,-30.3928,1001.538
0.766657352,-1.599827,-0.3071391,0.4428681,-0.4719559,0.1256731,0.8455059,27.71103,-44.16415,-30.3928,1001.538
0.769154549,-1.785713,-0.485817,0.2592675,-0.4739004,0.1251458,0.8455108,27.71103,-44.16415,-30.3928,1001.538
0.771652222,-1.537865,-0.6049355,0.3204677,-0.4772779,0.1226071,0.842665,27.71103,-44.16415,-30.3928,1001.538
0.774149418,-0.9802063,-0.5453762,0.3816679,-0.4729381,0.1261825,0.8488465,27.71103,-44.16415,-30.3928,1001.538
0.776646614,-0.9182442,-0.6644948,0.3816679,-0.4710069,0.1277384,0.8531333,27.71103,-44.16415,-30.3928,1001.538
0.779143810,-1.166093,-0.485817,0.5652685,-0.4710216,0.1287477,0.8559921,27.71103,-44.16415,-30.3928,1001.538
0.781641483,-1.413941,-0.6049355,0.5040683,-0.4729481,0.1266485,0.8474102,27.71103,-44.16415,-30.3928,1001.542
0.784138679,-1.351979,-0.5453762,0.4428681,-0.4719661,0.1267468,0.8531409,27.71103,-44.16415,-30.3928,1001.542
0.786635876,-1.351979,-0.485817,0.3816679,-0.4723659,0.1219091,0.8550863,27.71103,-44.16415,-30.3928,1001.542
0.789133072,-1.228055,-0.5453762,0.5652685,-0.4748227,0.1222452,0.8479204,27.71103,-44.16415,-30.3928,1001.542
0.791630745,-1.166093,-0.6049355,0.7488691,-0.4739438,0.1275723,0.8454935,27.71103,-44.16415,-30.3928,1001.542
0.794127941,-1.104131,-0.7240542,0.5040683,-0.4695524,0.1282295,0.8512183,27.71103,-44.16415,-30.3928,1001.542
0.796624660,-1.166093,-0.5453762,0.7488691,-0.4734836,0.1296206,0.8526436,27.71103,-44.16415,-30.3928,1001.542
0.799121857,-1.166093,-0.6049355,0.6264687,-0.4720605,0.1314902,0.8449869,27.71103,-44.16415,-30.3928,1001.542
0.801619053,-0.9182442,-0.5453762,0.4428681,-0.4695702,0.1291936,0.8507338,27.71103,-44.16415,-30.3928,1001.542
0.804116249,-1.228055,-0.4262576,0.5652685,-0.4710151,0.1282302,0.8536075,27.34983,-44.54097,-30.38561,1001.542
0.806613922,-1.599827,-0.485817,0.5040683,-0.4769969,0.1348918,0.8530858,27.34983,-44.54097,-30.38561,1001.542
0.809111118,-1.847676,-0.5453762,0.3816679,-0.4686987,0.1350253,0.8497363,27.34983,-44.54097,-30.38561,1001.542
0.811608314,-2.095524,-0.7836134,0.2592675,-0.4676408,0.1307237,0.85311,27.34983,-44.54097,-30.38561,1001.542
0.814105511,-2.033562,-0.902732,0.3816679,-0.4657192,0.132752,0.856438,27.34983,-44.54097,-30.38561,1001.542
0.816603184,-2.219448,-0.7836134,0.2592675,-0.4616773,0.1250197,0.8526695,27.34983,-44.54097,-30.38561,1001.542
0.819100380,-2.343372,-0.6049355,0.1368671,-0.4660644,0.124427,0.851721,27.34983,-44.54097,-30.38561,1001.542
0.821597576,-2.157486,-0.7240542,0.2592675,-0.4710531,0.1295121,0.8407014,27.34983,-44.54097,-30.38561,1001.54
0.824094295,-1.785713,-0.8431727,0.1980673,-0.4631614,0.1259331,0.8507532,27.34983,-44.54097,-30.38561,1001.54
0.826591492,-1.847676,-0.7836134,0.0756669,-0.4631062,0.1230664,0.8541173,27.34983,-44.54097,-30.38561,1001.54
0.829089165,-1.9716,-0.902732,0.1368671,-0.4646212,0.1253647,0.8469368,27.34983,-44.54097,-30.38561,1001.54
0.831586361,-2.033562,-0.8431727,0.1368671,-0.4705303,0.1281891,0.8497862,27.34983,-44.54097,-30.38561,1001.54
0.834083557,-1.785713,-0.9622913,0.0756669,-0.4676243,0.1297402,0.8521616,27.34983,-44.54097,-30.38561,1001.54
0.836580753,-1.785713,-0.902732,0.0144667,-0.4631532,0.1254413,0.8502791,27.34983,-44.54097,-30.38561,1001.54
0.839078426,-1.847676,-1.021851,0.0756669,-0.4686183,0.1306898,0.8521554,27.34983,-44.54097,-30.38561,1001.54
0.841575623,-2.033562,-0.9622913,0.1980673,-0.4696362,0.1331275,0.854527,27.34983,-44.54097,-30.38561,1001.54
0.844072819,-1.9716,-0.8431727,0.0144667,-0.4695426,0.1271493,0.8431057,27.34983,-44.54097,-30.38561,1001.54
0.846570015,-1.723751,-0.902732,0.0144667,-0.4724711,0.1271056,0.8445407,27.34983,-44.54097,-30.38561,1001.54
0.849067688,-1.785713,-1.200529,0.0756669,-0.4798621,0.1308755,0.8478618,27.34983,-44.54097,-30.38561,1001.54
0.851564884,-2.033562,-1.260088,-0.1079337,-0.4735161,0.131594,0.8550178,27.34983,-44.54097,-30.38561,1001.54
0.854061604,-2.219448,-1.200529,-0.2303341,-0.4710278,0.1286574,0.8493054,27.34351,-44.17208,-30.39204,1001.54
0.856558800,-2.653183,-1.260088,-0.1691339,-0.4773867,0.128974,0.8469186,27.34351,-44.17208,-30.39204,1001.54
0.859055996,-2.653183,-1.140969,0.0144667,-0.4739334,0.1271128,0.8474075,27.34351,-44.17208,-30.39204,1001.54
0.861553192,-2.343372,-1.140969,0.1368671,-0.4739133,0.1249589,0.8316599,27.34351,-44.17208,-30.39204,1001.536
0.864050865,-1.785713,-1.319647,0.0756669,-0.4689521,0.1219182,0.8503076,27.34351,-44.17208,-30.39204,1001.536
0.866548061,-1.909638,-1.260088,0.0756669,-0.4690301,0.1269,0.8598254,27.34351,-44.17208,-30.39204,1001.536
0.869045258,-1.909638,-1.021851,0.0756669,-0.4726189,0.1359634,0.8535532,27.34351,-44.17208,-30.39204,1001.536
0.871542454,-2.343372,-0.9622913,0.0756669,-0.4703912,0.1210385,0.8593904,27.34351,-44.17208,-30.39204,1001.536
0.874040127,-3.024956,-1.319647,0.1368671,-0.4704244,0.1223913,0.8517381,27.34351,-44.17208,-30.39204,1001.536
0.876537323,-3.210842,-1.498325,0.2592675,-0.4695508,0.1276411,0.8435798,27.34351,-44.17208,-30.39204,1001.536
0.879034519,-2.901031,-1.438766,0.2592675,-0.4670176,0.1229115,0.8488663,27.34351,-44.17208,-30.39204,1001.536
0.881531239,-3.14888,-1.140969,0.4428681,-0.4650808,0.123937,0.8498133,27.34351,-44.17208,-30.39204,1001.536
0.884028435,-3.45869,-1.200529,0.4428681,-0.4670762,0.1263408,0.8512303,27.34351,-44.17208,-30.39204,1001.536
0.886525631,-3.45869,-1.260088,0.6264687,-0.4636455,0.1253728,0.8459808,27.34351,-44.17208,-30.39204,1001.536
0.889023304,-2.901031,-1.200529,0.4428681,-0.4647379,0.1322297,0.8521422,27.34351,-44.17208,-30.39204,1001.536
0.891520500,-2.529259,-1.260088,0.3204677,-0.4660989,0.1269824,0.8612561,27.34351,-44.17208,-30.39204,1001.536
0.894017696,-2.839069,-1.379206,0.4428681,-0.4651904,0.1309051,0.8626606,27.34351,-44.17208,-30.39204,1001.536
0.896514893,-3.210842,-1.379206,0.3204677,-0.4646916,0.1304561,0.8645741,27.34351,-44.17208,-30.39204,1001.536
0.899012566,-3.644576,-1.379206,0.4428681,-0.4621285,0.1237144,0.8646207,27.34351,-44.17208,-30.39204,1001.536
0.901509762,-4.016349,-1.200529,0.3204677,-0.4648293,0.1104711,0.8589848,27.34351,-44.17208,-30.39204,1001.536
0.904006958,-4.264197,-1.200529,0.4428681,-0.4658304,0.1113176,0.8513368,27.7047,-43.79527,-30.39923,1001.536
0.906508446,-3.14888,-1.200529,0.4428681,-0.4658063,0.1092217,0.8398877,27.7047,-43.79527,-30.39923,1001.536
0.909001827,-2.715145,-1.08141,0.5040683,-0.4730619,0.1051754,0.8394433,27.7047,-43.79527,-30.39923,1001.536
0.911498070,-2.219448,-1.438766,0.6876689,-0.4751114,0.1110729,0.8480003,27.7047,-43.79527,-30.39923,1001.536
0.913995743,-1.785713,-1.438766,0.9324697,-0.4669232,0.118168,0.8570205,27.7047,-43.79527,-30.39923,1001.536
0.916492939,-1.661789,-1.260088,0.8712695,-0.4689377,0.1215167,0.8565201,27.7047,-43.79527,-30.39923,1001.536
0.918990135,-1.723751,-1.319647,0.8100693,-0.4739345,0.1277076,0.8555235,27.7047,-43.79527,-30.39923,1001.536
0.921487331,-1.847676,-1.260088,0.7488691,-0.4788301,0.128644,0.860774,27.7047,-43.79527,-30.39923,1001.536
0.923985004,-2.28141,-1.08141,0.5652685,-0.4714347,0.1249385,0.8622291,27.7047,-43.79527,-30.39923,1001.536
0.926482201,-2.715145,-1.260088,0.6264687,-0.4704335,0.1228702,0.851257,27.7047,-43.79527,-30.39923,1001.536
0.928979397,-2.839069,-1.260088,0.8712695,-0.4733665,0.122762,0.8479158,27.7047,-43.79527,-30.39923,1001.536
0.931476593,-2.653183,-1.379206,0.6264687,-0.467896,0.1175909,0.8517709,27.7047,-43.79527,-30.39923,1001.536
0.933974266,-2.405334,-1.319647,0.9324697,-0.4698751,0.118397,0.8426906,27.7047,-43.79527,-30.39923,1001.536
0.936471462,-1.723751,-1.021851,0.8100693,-0.4709082,0.1212233,0.8378944,27.7047,-43.79527,-30.39923,1001.536
0.938968658,-1.290017,-1.200529,0.7488691,-0.4714776,0.1261496,0.8440692,27.7047,-43.79527,-30.39923,1001.536
0.941465378,-1.351979,-1.498325,0.6876689,-0.4704195,0.1224622,0.8569919,27.7047,-43.79527,-30.39923,1001.54
0.943962574,-1.599827,-1.617444,0.7488691,-0.4742957,0.1203725,0.8522325,27.7047,-43.79527,-30.39923,1001.54
0.946460247,-1.723751,-1.796121,0.8712695,-0.4726186,0.1082007,0.847064,27.7047,-43.79527,-30.39923,1001.54
0.948957443,-1.537865,-1.736562,0.8712695,-0.4686427,0.1044024,0.8470888,27.7047,-43.79527,-30.39923,1001.54
0.951454639,-1.042168,-1.617444,0.6876689,-0.4665205,0.09528176,0.8514516,27.7047,-43.79527,-30.39923,1001.54
0.953951836,-1.042168,-1.736562,0.8712695,-0.4708819,0.09322671,0.8500358,27.3307,-43.4428,-30.85135,1001.54
0.956449509,-0.7323579,-1.438766,1.05487,-0.4685385,0.09857883,0.8471302,27.3307,-43.4428,-30.85135,1001.54
0.958946705,-0.1127371,-1.379206,1.17727,-0.4734975,0.1028737,0.8494908,27.3307,-43.4428,-30.85135,1001.54
0.961443901,0.2590355,-1.498325,1.238471,-0.4646818,0.1016069,0.8494947,27.3307,-43.4428,-30.85135,1001.54
0.963941097,0.01118713,-1.438766,1.299671,-0.4649274,0.1157707,0.8560811,27.3307,-43.4428,-30.85135,1001.54
0.966438770,0.07314922,-1.498325,1.299671,-0.4684002,0.1191844,0.8627461,27.3307,-43.4428,-30.85135,1001.54
0.968935013,-0.1746991,-1.379206,1.17727,-0.467957,0.1215957,0.860818,27.3307,-43.4428,-30.85135,1001.54
0.971432686,-0.2986233,-1.200529,0.9324697,-0.4596968,0.1248471,0.8727314,27.3307,-43.4428,-30.85135,1001.54
0.973929882,-0.7323579,-1.140969,1.17727,-0.4665707,0.1259884,0.8603081,27.3307,-43.4428,-30.85135,1001.54
0.976427078,-0.7323579,-1.08141,1.238471,-0.4693648,0.1181155,0.8570223,27.3307,-43.4428,-30.85135,1001.54
0.978924274,-0.9182442,-1.200529,1.299671,-0.472414,0.1248789,0.8593642,27.3307,-43.4428,-30.85135,1001.54
0.981421947,-1.042168,-1.200529,1.238471,-0.4680347,0.1259698,0.8612645,27.3307,-43.4428,-30.85135,1001.54
0.983919144,-1.104131,-0.8431727,1.238471,-0.4691093,0.1306406,0.8492901,27.3307,-43.4428,-30.85135,1001.54
0.986416340,-1.166093,-0.7836134,1.11607,-0.4651574,0.1277163,0.8421437,27.3307,-43.4428,-30.85135,1001.54
0.988913536,-1.042168,-1.140969,1.11607,-0.4648772,0.139988,0.8516093,27.3307,-43.4428,-30.85135,1001.54
0.991411209,-0.9802063,-1.200529,1.11607,-0.4692981,0.1413494,0.8516021,27.3307,-43.4428,-30.85135,1001.54
0.993908405,-1.661789,-1.260088,0.9324697,-0.4702919,0.1429131,0.8611448,27.3307,-43.4428,-30.85135,1001.54
0.996405602,-2.343372,-1.557884,0.6876689,-0.4682592,0.1386068,0.8626074,27.3307,-43.4428,-30.85135,1001.54
0.998902798,-3.086917,-1.736562,0.6876689,-0.4634538,0.143086,0.8630503,27.3307,-43.4428,-30.85135,1001.54
1.001399517,-3.520652,-1.498325,0.4428681,-0.4696953,0.1359362,0.8468643,27.3307,-43.4428,-30.85135,1001.54
1.003896713,-3.086917,-1.200529,0.3204677,-0.4778313,0.1247074,0.8192447,27.70454,-43.80376,-30.84569,1001.54
1.006394386,-1.228055,-1.140969,0.3816679,-0.4733813,0.1219352,0.8226056,27.70454,-43.80376,-30.84569,1001.54
1.008891582,0.1970734,-1.557884,0.4428681,-0.4637189,0.1291972,0.8416547,27.70454,-43.80376,-30.84569,1001.54
1.011388779,-0.2986233,-1.796121,0.4428681,-0.4630296,0.1470562,0.8687537,27.70454,-43.80376,-30.84569,1001.54
1.013885975,-1.909638,-1.617444,0.2592675,-0.4736099,0.13818,0.8755105,27.70454,-43.80376,-30.84569,1001.54
1.016383648,-3.024956,-1.438766,0.0756669,-0.4806929,0.1225787,0.8460107,27.70454,-43.80376,-30.84569,1001.54
1.018880844,-2.962993,-1.617444,0.1368671,-0.4765687,0.109929,0.8375007,27.70454,-43.80376,-30.84569,1001.54
1.021378040,-2.157486,-2.034359,0.2592675,-0.4659056,0.1151162,0.8451,27.70454,-43.80376,-30.84569,1001.54
1.023875237,-1.785713,-1.796121,0.2592675,-0.4664769,0.1194025,0.8398154,27.70454,-43.80376,-30.84569,1001.543
1.026372910,-1.723751,-1.617444,0.0756669,-0.4640222,0.1190341,0.8445933,27.70454,-43.80376,-30.84569,1001.543
1.028870106,-1.537865,-1.855681,0.3204677,-0.465617,0.1262885,0.8450202,27.70454,-43.80376,-30.84569,1001.543
1.031366825,-1.475903,-2.093918,0.3816679,-0.4656515,0.1288439,0.8545552,27.70454,-43.80376,-30.84569,1001.543
1.033864021,-1.599827,-1.91524,0.2592675,-0.4646037,0.1250083,0.8564926,27.70454,-43.80376,-30.84569,1001.543
1.036361218,-2.033562,-2.034359,0.3816679,-0.4626905,0.1269142,0.850746,27.70454,-43.80376,-30.84569,1001.543
1.038858414,-2.219448,-1.91524,0.2592675,-0.4679844,0.1230322,0.8593748,27.70454,-43.80376,-30.84569,1001.543
1.041356087,-1.9716,-2.034359,0.3204677,-0.4630803,0.1209963,0.8445788,27.70454,-43.80376,-30.84569,1001.543
1.043853283,-1.228055,-2.272596,0.6876689,-0.4620285,0.1172187,0.8508148,27.70454,-43.80376,-30.84569,1001.543
1.046350479,-1.785713,-2.093918,0.6876689,-0.4580805,0.1160724,0.8675388,27.70454,-43.80376,-30.84569,1001.543
1.048847675,-2.529259,-1.796121,0.8100693,-0.4697745,0.1137438,0.8575314,27.70454,-43.80376,-30.84569,1001.543
1.051345348,-2.343372,-1.796121,0.7488691,-0.4691061,0.1035308,0.8552155,27.70454,-43.80376,-30.84569,1001.543
1.053842545,-1.909638,-2.034359,0.5652685,-0.4653585,0.1123115,0.8522847,27.34303,-44.19635,-31.66765,1001.543
1.056339741,-1.661789,-1.974799,0.8712695,-0.4655119,0.1204778,0.8460168,27.34303,-44.19635,-31.66765,1001.543
1.058836460,-1.661789,-1.974799,1.05487,-0.4679944,0.1222763,0.8393183,27.34303,-44.19635,-31.66765,1001.543
1.061333656,-1.537865,-1.855681,1.299671,-0.4655418,0.1224899,0.8512568,27.34303,-44.19635,-31.66765,1001.543
1.063831329,-1.413941,-1.796121,1.422071,-0.4675097,0.1234571,0.8541172,27.34303,-44.19635,-31.66765,1001.543
1.066328526,-1.661789,-2.093918,1.360871,-0.4694672,0.1239649,0.8588913,27.34303,-44.19635,-31.66765,1001.543
1.068825722,-2.219448,-2.153477,1.11607,-0.4752218,0.1180281,0.8598924,27.34303,-44.19635,-31.66765,1001.543
1.071322918,-2.591221,-1.91524,1.422071,-0.4635416,0.120157,0.8550936,27.34303,-44.19635,-31.66765,1001.543
1.073820591,-2.715145,-1.91524,1.544472,-0.4610958,0.1196598,0.8503191,27.34303,-44.19635,-31.66765,1001.543
1.076317787,-2.529259,-1.974799,1.422071,-0.4639194,0.1131912,0.8432019,27.34303,-44.19635,-31.66765,1001.543
1.078814983,-2.219448,-2.153477,1.544472,-0.4619566,0.1127608,0.8441592,27.34303,-44.19635,-31.66765,1001.543
1.081312180,-1.9716,-1.974799,1.483271,-0.461045,0.1167287,0.848907,27.34303,-44.19635,-31.66765,1001.543
1.083809853,-1.351979,-2.034359,1.544472,-0.4634109,0.112884,0.8556231,27.34303,-44.19635,-31.66765,1001.543
1.086307049,-1.723751,-1.974799,1.605672,-0.4638939,0.1129508,0.8613549,27.34303,-44.19635,-31.66765,1001.543
1.088803768,-1.785713,-1.855681,1.605672,-0.4599549,0.1110614,0.8589778,27.34303,-44.19635,-31.66765,1001.543
1.091300964,-1.909638,-1.677003,1.605672,-0.4653984,0.1147896,0.8560883,27.34303,-44.19635,-31.66765,1001.543
1.093798161,-1.723751,-1.617444,1.728072,-0.4689052,0.1195433,0.8541459,27.34303,-44.19635,-31.66765,1001.543
1.096295357,-1.785713,-1.736562,1.666872,-0.4653394,0.1113667,0.8542022,27.34303,-44.19635,-31.66765,1001.543
1.098793030,-1.909638,-2.034359,1.789272,-0.4628418,0.1085655,0.8585196,27.34303,-44.19635,-31.66765,1001.543
1.101290226,-2.095524,-1.855681,1.850473,-0.4559429,0.1053412,0.8604492,27.34303,-44.19635,-31.66765,1001.543
1.103787422,-2.095524,-1.796121,1.972873,-0.4524232,0.09955251,0.8576224,27.33702,-43.81169,-30.84493,1001.545
1.106284618,-1.785713,-1.796121,2.034073,-0.4582987,0.09980867,0.8499815,27.33702,-43.81169,-30.84493,1001.545
1.108782291,-1.104131,-1.498325,2.034073,-0.4554269,0.1033074,0.8528208,27.33702,-43.81169,-30.84493,1001.545
1.111279488,-0.8562821,-1.200529,1.972873,-0.4540922,0.1106184,0.8527678,27.33702,-43.81169,-30.84493,1001.545
1.113776684,-0.2366612,-1.08141,2.095273,-0.4566175,0.1154639,0.8560784,27.33702,-43.81169,-30.84493,1001.545
1.116273403,0.07314922,-1.140969,2.340074,-0.4680873,0.1288751,0.8607661,27.33702,-43.81169,-30.84493,1001.545
1.118770599,-0.4225475,-1.200529,2.278874,-0.4720441,0.1317286,0.8626587,27.33702,-43.81169,-30.84493,1001.545
1.121267796,-1.104131,-1.021851,2.034073,-0.4659199,0.1173538,0.8670566,27.33702,-43.81169,-30.84493,1001.545
1.123765469,-1.723751,-1.140969,1.972873,-0.4639039,0.1134168,0.8599186,27.33702,-43.81169,-30.84493,1001.545
1.126262665,-1.104131,-0.902732,1.850473,-0.4633897,0.1113572,0.8503797,27.33702,-43.81169,-30.84493,1001.545
1.128759861,-0.4225475,-0.9622913,1.789272,-0.461489,0.1143046,0.8498799,27.33702,-43.81169,-30.84493,1001.545
1.131257057,-0.6703959,-0.9622913,1.850473,-0.4606177,0.1207439,0.8579537,27.33702,-43.81169,-30.84493,1001.545
1.133754730,-1.104131,-0.6049355,1.605672,-0.4626603,0.1261304,0.8646038,27.33702,-43.81169,-30.84493,1001.545
1.136251926,-1.723751,-0.485817,1.483271,-0.461159,0.1236323,0.8569781,27.33702,-43.81169,-30.84493,1001.545
1.138749123,-2.343372,-0.3666984,1.544472,-0.4627413,0.1298453,0.8521581,27.33702,-43.81169,-30.84493,1001.545
1.141246319,-2.777107,-0.3666984,1.422071,-0.4740401,0.1335118,0.8540492,27.33702,-43.81169,-30.84493,1001.545
1.143743992,-2.901031,-0.4262576,0.9936699,-0.4695954,0.1306624,0.8516786,27.33702,-43.81169,-30.84493,1001.545
1.146241188,-3.210842,-0.3071391,0.8712695,-0.4686432,0.1315509,0.844029,27.33702,-43.81169,-30.84493,1001.545
1.148737907,-3.892425,-0.485817,1.05487,-0.4650893,0.1250364,0.8593587,27.33702,-43.81169,-30.84493,1001.545
1.151235104,-4.574008,-0.2475797,0.7488691,-0.4700608,0.1303727,0.8669662,27.33702,-43.81169,-30.84493,1001.545
1.153732300,-5.317553,-0.1880204,0.3816679,-0.4685433,0.126277,0.8488433,27.03058,-43.82679,-31.29076,1001.545
1.156231880,-6.185022,-0.2475797,0.3816679,-0.4610274,0.1163722,0.8584628,27.03058,-43.82679,-31.29076,1001.545
1.158727169,-6.866605,-0.1880204,0.1368671,-0.4619491,0.1128704,0.8522787,27.03058,-43.82679,-31.29076,1001.545
1.161224365,-7.548188,0.1693354,-0.0467335,-0.4535461,0.1078009,0.8589973,27.03058,-43.82679,-31.29076,1001.545
1.163721561,-8.043884,0.2288947,0.0144667,-0.4563878,0.1029042,0.8604668,27.03058,-43.82679,-31.29076,1001.545
1.166218758,-8.291733,0.4671319,-0.0467335,-0.4622293,0.1018205,0.8614333,27.03058,-43.82679,-31.29076,1001.545
1.168716431,-8.78743,0.5862505,-0.1079337,-0.4576533,0.09231859,0.8696188,27.03058,-43.82679,-31.29076,1001.545
1.171213627,-9.592937,0.9436063,0.1368671,-0.462142,0.09697394,0.8619455,27.03058,-43.82679,-31.29076,1001.545
1.173710823,-9.592937,1.420081,0.1368671,-0.4602406,0.09932002,0.852852,27.03058,-43.82679,-31.29076,1001.545
1.176207542,-9.159202,1.360521,0.3204677,-0.4582025,0.09509102,0.860046,27.03058,-43.82679,-31.29076,1001.545
1.178704739,-9.469012,1.420081,0.3816679,-0.4568512,0.1020327,0.8685937,27.03058,-43.82679,-31.29076,1001.545
1.181202412,-9.964709,1.836996,0.3816679,-0.4560154,0.1091785,0.8570782,27.03058,-43.82679,-31.29076,1001.545
1.183699608,-10.1506,2.194351,0.5040683,-0.4589595,0.1101312,0.8604168,27.03058,-43.82679,-31.29076,1001.549
1.186196804,-10.02667,2.075233,0.3204677,-0.4594009,0.1077457,0.8642554,27.03058,-43.82679,-31.29076,1001.549
1.188694000,-10.1506,2.373029,0.3204677,-0.4570462,0.1126512,0.864219,27.03058,-43.82679,-31.29076,1001.549
1.191191673,-10.21256,2.551707,0.2592675,-0.4557059,0.1194318,0.8608262,27.03058,-43.82679,-31.29076,1001.549
1.193688870,-10.1506,2.611267,0.1368671,-0.460613,0.1202007,0.8536587,27.03058,-43.82679,-31.29076,1001.549
1.196186066,-10.08863,2.849504,0.2592675,-0.4636671,0.1268931,0.8507467,27.03058,-43.82679,-31.29076,1001.549
1.198683262,-9.902747,2.789945,0.1980673,-0.4661672,0.1302699,0.8531123,27.03058,-43.82679,-31.29076,1001.549
1.201180935,-9.964709,2.611267,-0.1079337,-0.4617294,0.1279315,0.8526488,27.03058,-43.82679,-31.29076,1001.549
1.203678131,-9.654899,2.611267,-0.2303341,-0.4665923,0.1262868,0.8464537,27.70438,-43.81226,-31.29216,1001.549
1.206174851,-9.345088,2.373029,-0.5363351,-0.4665006,0.1215047,0.8517421,27.70438,-43.81226,-31.29216,1001.549
1.208672524,-9.469012,2.253911,-0.7199357,-0.4636357,0.1255146,0.8564885,27.70438,-43.81226,-31.29216,1001.549
1.211169243,-9.345088,2.134792,-0.8423361,-0.4661594,0.1297717,0.8521606,27.70438,-43.81226,-31.29216,1001.549
1.213666439,-9.097239,2.134792,-1.025937,-0.4632015,0.1277969,0.845008,27.70438,-43.81226,-31.29216,1001.549
1.216164112,-8.911353,2.194351,-1.393138,-0.4613072,0.1312618,0.8468928,27.70438,-43.81226,-31.29216,1001.549
1.218661308,-8.973315,1.896555,-1.94394,-0.4573558,0.1295528,0.8578889,27.70438,-43.81226,-31.29216,1001.549
1.221158505,-9.345088,1.836996,-2.06634,-0.4593412,0.1327125,0.8793625,27.70438,-43.81226,-31.29216,1001.549
1.223655701,-10.83218,1.420081,-2.12754,-0.4505457,0.1335995,0.8951139,27.70438,-43.81226,-31.29216,1001.549
1.226153374,-12.81497,0.3480133,-2.617142,-0.4313737,0.1248615,0.8645945,27.70438,-43.81226,-31.29216,1001.549
1.228650570,-13.2487,0.7053691,-2.861943,-0.4702718,0.1117684,0.8198103,27.70438,-43.81226,-31.29216,1001.549
1.231147766,-10.46041,2.194351,-2.923143,-0.4917923,0.1114113,0.7916432,27.70438,-43.81226,-31.29216,1001.549
1.233644486,-7.30034,1.956114,-2.984343,-0.4645064,0.1166378,0.8116518,27.70438,-43.81226,-31.29216,1001.549
1.236141682,-6.680719,1.122284,-2.800743,-0.4543116,0.1239405,0.8689135,27.70438,-43.81226,-31.29216,1001.549
1.238638878,-8.415657,0.9436063,-3.106744,-0.4607545,0.1309847,0.8975269,27.70438,-43.81226,-31.29216,1001.549
1.241136551,-10.46041,0.8244877,-3.412745,-0.4615735,0.1210258,0.8804025,27.70438,-43.81226,-31.29216,1001.549
1.243633747,-11.4518,0.4671319,-3.473945,-0.4637825,0.1060084,0.8504181,27.70438,-43.81226,-31.29216,1001.549
1.246130943,-10.1506,0.6458098,-3.473945,-0.4680394,0.09630021,0.8213524,27.70438,-43.81226,-31.29216,1001.549
1.248628139,-7.91996,0.7053691,-3.412745,-0.4567693,0.09405088,0.8165851,27.70438,-43.81226,-31.29216,1001.549
1.251125812,-6.494833,0.4671319,-3.045543,-0.4539604,0.1027506,0.8451813,27.70438,-43.81226,-31.29216,1001.549
1.253623009,-6.370908,0.4075725,-3.045543,-0.4619925,0.1165187,0.8708816,27.33039,-43.45858,-31.6805,1001.549
1.256120205,-6.804643,0.4075725,-3.167944,-0.4633493,0.1107217,0.8752227,27.33039,-43.45858,-31.6805,1001.549
1.258617401,-7.857998,0.5266911,-3.351544,-0.4657625,0.1080236,0.8590029,27.33039,-43.45858,-31.6805,1001.549
1.261115074,-7.857998,0.288454,-3.412745,-0.4733005,0.09167319,0.8467047,27.33039,-43.45858,-31.6805,1001.549
1.263612270,-7.238378,0.2288947,-3.229144,-0.4682495,0.08198853,0.8405612,27.33039,-43.45858,-31.6805,1001.549
1.266108990,-6.556795,0.1693354,-2.923143,-0.4606056,0.09254112,0.8548113,27.33039,-43.45858,-31.6805,1001.549
1.268606186,-6.246984,-0.00934254,-2.923143,-0.4660629,0.09729144,0.855736,27.33039,-43.45858,-31.6805,1001.549
1.271103382,-6.185022,-0.1284611,-2.923143,-0.4689772,0.09623206,0.8538346,27.33039,-43.45858,-31.6805,1001.549
1.273600578,-5.875212,-0.00934254,-2.800743,-0.469581,0.1024918,0.8509243,27.33039,-43.45858,-31.6805,1001.549
1.276098251,-5.81325,-0.1284611,-2.617142,-0.4670385,0.09789748,0.8662408,27.33039,-43.45858,-31.6805,1001.549
1.278595447,-6.370908,-0.2475797,-2.555942,-0.4641037,0.09803138,0.8714924,27.33039,-43.45858,-31.6805,1001.549
1.281092644,-6.804643,-0.6049355,-2.617142,-0.4621051,0.09506497,0.8643474,27.33039,-43.45858,-31.6805,1001.549
1.283589840,-6.804643,-0.485817,-2.494742,-0.4596779,0.09551902,0.8581331,27.33039,-43.45858,-31.6805,1001.549
1.286087513,-6.618757,-0.3666984,-2.494742,-0.4610435,0.08959308,0.8529219,27.33039,-43.45858,-31.6805,1001.549
1.288584709,-6.804643,-0.3666984,-2.249941,-0.4675303,0.09783543,0.8624202,27.33039,-43.45858,-31.6805,1001.549
1.291081905,-7.424264,-0.4262576,-2.311141,-0.4700716,0.1036709,0.8671567,27.33039,-43.45858,-31.6805,1001.549
1.293578625,-7.114453,-0.6049355,-2.372341,-0.4680175,0.09723009,0.8543046,27.33039,-43.45858,-31.6805,1001.549
1.296075821,-6.990529,-0.6049355,-2.311141,-0.4714588,0.0980434,0.8480911,27.33039,-43.45858,-31.6805,1001.549
1.298573494,-6.556795,-0.6644948,-2.311141,-0.4657362,0.10596,0.849942,27.33039,-43.45858,-31.6805,1001.549
1.301070690,-6.494833,-0.6049355,-2.494742,-0.4585066,0.1126841,0.8689963,27.33039,-43.45858,-31.6805,1001.549
1.303567886,-7.61015,-0.3666984,-2.372341,-0.4530504,0.1085286,0.8761877,27.32421,-43.08241,-31.30424,1001.549
1.306070328,-8.477619,-0.1284611,-2.372341,-0.4549661,0.1059764,0.8699974,27.32421,-43.08241,-31.30424,1001.548
1.308562755,-8.849391,-0.5453762,-2.678342,-0.4564927,0.1093291,0.869019,27.32421,-43.08241,-31.30424,1001.548
1.311059952,-9.40705,-0.4262576,-3.045543,-0.4617474,0.1023485,0.8638176,27.32421,-43.08241,-31.30424,1001.548
1.313557148,-9.592937,-0.06890184,-2.800743,-0.4601023,0.09215654,0.861501,27.32421,-43.08241,-31.30424,1001.548
1.316054344,-9.469012,0.1693354,-2.555942,-0.4683174,0.0865044,0.8515153,27.32421,-43.08241,-31.30424,1001.548
1.318552017,-9.097239,0.1693354,-2.494742,-0.4698908,0.09284618,0.8562476,27.32421,-43.08241,-31.30424,1001.548
1.321049213,-9.283126,-0.00934254,-2.617142,-0.4626323,0.09754538,0.8691067,27.32421,-43.08241,-31.30424,1001.548
1.323545933,-10.21256,-0.06890184,-2.739542,-0.4642115,0.1038034,0.86763,27.32421,-43.08241,-31.30424,1001.548
1.326043129,-10.9561,0.288454,-2.555942,-0.4690031,0.0983021,0.8633731,27.32421,-43.08241,-31.30424,1001.548
1.328540325,-11.01806,0.6458098,-2.555942,-0.4742782,0.09102513,0.8362013,27.32421,-43.08241,-31.30424,1001.548
1.331037521,-9.778823,0.1097761,-2.800743,-0.4729027,0.09587096,0.8332999,27.32421,-43.08241,-31.30424,1001.548
1.333535194,-8.973315,-0.1880204,-2.433542,-0.4566457,0.08973271,0.856262,27.32421,-43.08241,-31.30424,1001.548
1.336032390,-8.725468,-0.2475797,-1.94394,-0.4532785,0.09334507,0.8667428,27.32421,-43.08241,-31.30424,1001.548
1.338529587,-8.477619,-0.2475797,-2.372341,-0.4515381,0.1049698,0.8618823,27.32421,-43.08241,-31.30424,1001.548
1.341026783,-8.477619,-0.3666984,-2.311141,-0.4446957,0.1045929,0.859015,27.32421,-43.08241,-31.30424,1001.548
1.343524456,-8.477619,0.05021676,-2.311141,-0.4525327,0.1052988,0.8518496,27.32421,-43.08241,-31.30424,1001.548
1.346021652,-7.796036,0.1693354,-2.433542,-0.4577484,0.09582726,0.8418893,27.32421,-43.08241,-31.30424,1001.552
1.348518848,-6.742681,0.05021676,-2.494742,-0.4577206,0.09439714,0.8438101,27.32421,-43.08241,-31.30424,1001.552
1.351016044,-5.937174,-0.1880204,-2.311141,-0.4510208,0.1029553,0.8556867,27.32421,-43.08241,-31.30424,1001.552
1.353512764,-5.937174,-0.06890184,-2.311141,-0.4638643,0.1115464,0.8651862,27.01763,-43.10479,-32.13276,1001.552
1.356009960,-6.618757,-0.06890184,-2.372341,-0.4612079,0.09943432,0.8628828,27.01763,-43.10479,-32.13276,1001.552
1.358507633,-7.114453,-0.1284611,-2.06634,-0.4616641,0.09744397,0.8600312,27.01763,-43.10479,-32.13276,1001.552
1.361004829,-6.742681,0.1097761,-2.249941,-0.4695482,0.09991062,0.8394787,27.01763,-43.10479,-32.13276,1001.552
1.363502025,-5.81325,0.3480133,-2.555942,-0.460247,0.09861564,0.8366165,27.01763,-43.10479,-32.13276,1001.552
1.365999222,-5.193629,-0.00934254,-2.249941,-0.4460765,0.09966973,0.8561849,27.01763,-43.10479,-32.13276,1001.552
1.368496895,-4.63597,0.05021676,-2.617142,-0.4417251,0.1021908,0.8561643,27.01763,-43.10479,-32.13276,1001.552
1.370994091,-3.954387,0.3480133,-2.678342,-0.4500299,0.1019606,0.8523496,27.01763,-43.10479,-32.13276,1001.552
1.373491287,-3.768501,0.3480133,-2.800743,-0.4578398,0.1018377,0.8556987,27.01763,-43.10479,-32.13276,1001.552
1.375988483,-3.954387,0.4075725,-2.372341,-0.4542135,0.0908718,0.8648504,27.01763,-43.10479,-32.13276,1001.552
1.378486156,-3.768501,0.4671319,-2.433542,-0.4538056,0.09521776,0.8624308,27.01763,-43.10479,-32.13276,1001.552
1.380983353,-3.14888,0.5266911,-2.678342,-0.4603096,0.1032088,0.853302,27.01763,-43.10479,-32.13276,1001.552
1.383480072,-2.653183,0.884047,-2.861943,-0.4684225,0.09231508,0.8505185,27.01763,-43.10479,-32.13276,1001.552
1.385977268,-2.28141,1.003166,-2.739542,-0.4712043,0.08400845,0.8510571,27.01763,-43.10479,-32.13276,1001.548
1.388474464,-2.033562,0.5862505,-2.372341,-0.4677677,0.08373843,0.8615656,27.01763,-43.10479,-32.13276,1001.548
1.390971660,-1.847676,0.6458098,-2.12754,-0.4682342,0.08282177,0.8663491,27.01763,-43.10479,-32.13276,1001.548
1.393469334,-2.095524,0.7053691,-1.94394,-0.4623623,0.08251406,0.8701692,27.01763,-43.10479,-32.13276,1001.548
1.395966530,-2.28141,0.7649284,-2.00514,-0.4623812,0.08285116,0.8591805,27.01763,-43.10479,-32.13276,1001.548
1.398463726,-1.661789,0.884047,-1.94394,-0.4642173,0.07595056,0.8544542,27.01763,-43.10479,-32.13276,1001.548
1.400960922,-1.166093,1.241403,-1.576739,-0.4663542,0.08608045,0.8529501,27.01763,-43.10479,-32.13276,1001.548
1.403458595,-0.4845096,1.003166,-1.699139,-0.4631444,0.0978011,0.8528646,27.68494,-42.72988,-32.58705,1001.548
1.405955791,-0.4845096,0.9436063,-1.699139,-0.4674778,0.0949301,0.8629186,27.68494,-42.72988,-32.58705,1001.548
1.408452988,-0.9182442,1.062725,-1.637939,-0.4714337,0.0977965,0.8657665,27.68494,-42.72988,-32.58705,1001.548
1.410950184,-0.8562821,1.122284,-1.699139,-0.4788426,0.1006945,0.8404339,27.68494,-42.72988,-32.58705,1001.548
1.413446903,-0.5464717,1.062725,-1.760339,-0.4771237,0.08668464,0.8429212,27.68494,-42.72988,-32.58705,1001.548
1.415944576,-0.1127371,0.884047,-1.393138,-0.4624176,0.08354469,0.838636,27.68494,-42.72988,-32.58705,1001.548
1.418441772,0.3829597,0.9436063,-1.393138,-0.4561567,0.08914194,0.847668,27.68494,-42.72988,-32.58705,1001.548
1.420938969,0.9406185,1.241403,-1.454338,-0.446639,0.07631581,0.8534859,27.68494,-42.72988,-32.58705,1001.548
1.423436165,1.064543,1.300962,-1.087137,-0.447134,0.07743054,0.8649422,27.68494,-42.72988,-32.58705,1001.548
1.425933838,1.374353,1.181844,-1.087137,-0.4507129,0.08602792,0.8601063,27.68494,-42.72988,-32.58705,1001.551
1.428431034,1.87005,1.539199,-1.209537,-0.4463364,0.08708017,0.8591409,27.68494,-42.72988,-32.58705,1001.551
1.430928230,2.17986,1.717877,-1.087137,-0.449906,0.09581286,0.8643349,27.68494,-42.72988,-32.58705,1001.551
1.433425426,2.489671,1.896555,-1.270738,-0.4464738,0.09547842,0.8700673,27.68494,-42.72988,-32.58705,1001.551
1.435923099,2.551633,2.194351,-1.393138,-0.4533989,0.09954438,0.8585784,27.68494,-42.72988,-32.58705,1001.551
1.438420296,2.489671,2.373029,-1.454338,-0.4704828,0.09866568,0.8566841,27.68494,-42.72988,-32.58705,1001.551
1.440917492,2.737519,2.432589,-1.515538,-0.4754646,0.1038538,0.8533063,27.68494,-42.72988,-32.58705,1001.551
1.443414211,3.35714,2.253911,-1.760339,-0.458335,0.1023383,0.8576061,27.68494,-42.72988,-32.58705,1001.551
1.445911407,3.728912,2.492148,-1.515538,-0.4491979,0.0837296,0.8672867,27.68494,-42.72988,-32.58705,1001.551
1.448408604,3.66695,2.849504,-1.393138,-0.4622109,0.07370783,0.8649776,27.68494,-42.72988,-32.58705,1001.551
1.450906277,3.66695,2.670826,-1.331938,-0.4634961,0.06344643,0.8621855,27.68494,-42.72988,-32.58705,1001.551
1.453403473,4.038723,2.551707,-0.9647365,-0.459617,0.06496702,0.8607395,28.03982,-41.98419,-32.60066,1001.551
1.455904484,4.906192,2.789945,-1.025937,-0.4665353,0.06974381,0.8659638,28.03982,-41.98419,-32.60066,1001.551
1.458397865,5.339927,3.504656,-0.5975353,-0.4674324,0.06415258,0.8488082,28.03982,-41.98419,-32.60066,1001.551
1.460895538,6.02151,3.325978,-0.2303341,-0.4691385,0.07834933,0.8601719,28.03982,-41.98419,-32.60066,1001.551
1.463392734,6.207396,3.385538,-0.0467335,-0.4740917,0.08272794,0.8687415,28.03982,-41.98419,-32.60066,1001.551
1.465889931,5.897585,3.445097,-0.1691339,-0.4741963,0.08854505,0.8682224,28.03982,-41.98419,-32.60066,1001.545
1.468387127,5.15404,3.564215,-0.1079337,-0.465444,0.09125081,0.8748853,28.03982,-41.98419,-32.60066,1001.545
1.470883846,4.472457,3.802453,-0.2915343,-0.4703046,0.08963834,0.8710783,28.03982,-41.98419,-32.60066,1001.545
1.473381042,3.914799,3.802453,-0.3527345,-0.4679914,0.0957742,0.8543149,28.03982,-41.98419,-32.60066,1001.545
1.475878715,3.852837,3.981131,-0.2303341,-0.4591569,0.09417029,0.8653075,28.03982,-41.98419,-32.60066,1001.545
1.478375912,3.728912,4.338486,-0.2303341,-0.4616212,0.09501104,0.8595709,28.03982,-41.98419,-32.60066,1001.545
1.480873108,3.604988,4.695842,0.0756669,-0.4698565,0.09089854,0.8557838,28.03982,-41.98419,-32.60066,1001.545
1.483370304,3.481064,4.814961,0.0144667,-0.469471,0.09675195,0.8571748,28.03982,-41.98419,-32.60066,1001.545
1.485867977,3.66695,5.172317,-0.5975353,-0.4685555,0.1007778,0.8662211,28.03982,-41.98419,-32.60066,1001.545
1.488365173,3.481064,5.291435,-0.4751349,-0.4709385,0.09729594,0.8638591,28.03982,-41.98419,-32.60066,1001.545
1.490862369,3.295178,5.112757,-0.3527345,-0.466529,0.09638122,0.860997,28.03982,-41.98419,-32.60066,1001.545
1.493359566,3.481064,4.934079,-0.5363351,-0.464689,0.1027257,0.860473,28.03982,-41.98419,-32.60066,1001.545
1.495857239,3.66695,4.87452,-0.9035363,-0.4622862,0.1046614,0.8561588,28.03982,-41.98419,-32.60066,1001.545
1.498354435,3.790874,4.814961,-1.209537,-0.4597939,0.1017828,0.8547449,28.03982,-41.98419,-32.60066,1001.545
1.500851631,3.976761,5.172317,-1.454338,-0.4711913,0.1107425,0.8532546,28.03982,-41.98419,-32.60066,1001.545
1.503348350,4.162647,5.350995,-1.576739,-0.4686478,0.1049392,0.8509063,27.6726,-41.97633,-31.77074,1001.545
1.505845547,4.162647,5.112757,-1.515538,-0.4755267,0.1072316,0.8518493,27.6726,-41.97633,-31.77074,1001.547
1.508342743,4.53442,4.993639,-2.00514,-0.4775004,0.108115,0.8485004,27.6726,-41.97633,-31.77074,1001.547
1.510840416,4.53442,4.814961,-2.06634,-0.4739003,0.09799089,0.8480929,27.6726,-41.97633,-31.77074,1001.547
1.513337612,4.658344,4.576724,-2.06634,-0.474548,0.1066706,0.8446878,27.6726,-41.97633,-31.77074,1001.547
1.515834808,5.277965,4.695842,-2.555942,-0.4756738,0.115488,0.8522681,27.6726,-41.97633,-31.77074,1001.547
1.518336773,5.092078,4.636283,-2.800743,-0.4740035,0.1044415,0.8585556,27.6726,-41.97633,-31.77074,1001.547
1.520829677,4.906192,4.398046,-2.923143,-0.4783989,0.1037263,0.8485323,27.6726,-41.97633,-31.77074,1001.547
1.523326874,5.15404,4.457605,-2.861943,-0.4768983,0.1018296,0.8495002,27.6726,-41.97633,-31.77074,1001.547
1.525824070,5.649737,4.517164,-2.739542,-0.4728616,0.09463414,0.8495492,27.6726,-41.97633,-31.77074,1001.547
1.528321266,6.083472,4.457605,-2.800743,-0.4753025,0.09520223,0.8595776,27.6726,-41.97633,-31.77074,1001.547
1.530817985,6.083472,4.219368,-2.861943,-0.4828725,0.1086008,0.8570981,27.6726,-41.97633,-31.77074,1001.547
1.533315658,6.02151,4.219368,-2.861943,-0.4789742,0.1091765,0.8575693,27.6726,-41.97633,-31.77074,1001.547
1.535812855,5.959548,4.04069,-3.045543,-0.483752,0.1026531,0.8494984,27.6726,-41.97633,-31.77074,1001.547
1.538310051,5.835624,4.159809,-2.923143,-0.4814086,0.1080052,0.8465929,27.6726,-41.97633,-31.77074,1001.547
1.540807247,6.02151,4.517164,-3.045543,-0.484198,0.100811,0.8576321,27.6726,-41.97633,-31.77074,1001.547
1.543304920,5.587775,4.457605,-2.861943,-0.4763451,0.09911514,0.8633716,27.6726,-41.97633,-31.77074,1001.547
1.545802116,5.711699,4.278927,-3.167944,-0.4807594,0.09995898,0.8609799,27.6726,-41.97633,-31.77074,1001.546
1.548299312,5.773662,4.695842,-3.106744,-0.477361,0.1003567,0.8490334,27.6726,-41.97633,-31.77074,1001.546
1.550796509,5.897585,4.814961,-3.167944,-0.4705654,0.1029689,0.8518767,27.6726,-41.97633,-31.77074,1001.546
1.553294182,6.083472,5.112757,-3.167944,-0.4713769,0.09434144,0.8614921,28.04647,-42.33608,-31.7013,1001.546
1.555791378,6.083472,5.053198,-2.739542,-0.4811952,0.09704314,0.8614786,28.04647,-42.33608,-31.7013,1001.546
1.558288574,6.269358,5.053198,-2.494742,-0.4777463,0.09511749,0.8571913,28.04647,-42.33608,-31.7013,1001.546
1.560785293,7.074865,4.755402,-2.433542,-0.4738647,0.09606259,0.849062,28.04647,-42.33608,-31.7013,1001.546
1.563282490,7.942335,5.291435,-2.678342,-0.4654739,0.09142683,0.8519561,28.04647,-42.33608,-31.7013,1001.546
1.565779686,8.438032,5.76791,-2.433542,-0.4635158,0.09153973,0.8572085,28.04647,-42.33608,-31.7013,1001.546
1.568277359,8.747842,6.006147,-2.372341,-0.459584,0.09076914,0.8658096,28.04647,-42.33608,-31.7013,1001.546
1.570774555,9.305501,6.720859,-2.188741,-0.4587032,0.09673615,0.8748422,28.04647,-42.33608,-31.7013,1001.546
1.573271751,9.367463,7.256892,-1.94394,-0.460601,0.09444162,0.8877566,28.04647,-42.33608,-31.7013,1001.546
1.575768948,9.367463,7.733366,-1.637939,-0.4611806,0.09921964,0.8829462,28.04647,-42.33608,-31.7013,1001.546
1.578266621,9.677274,8.448078,-1.699139,-0.4541495,0.1152889,0.8751848,28.04647,-42.33608,-31.7013,1001.546
1.580763817,10.04905,9.341468,-2.00514,-0.4469489,0.1228161,0.8818141,28.04647,-42.33608,-31.7013,1001.546
1.583261013,10.35886,10.59221,-2.188741,-0.448352,0.1200146,0.8923436,28.04647,-42.33608,-31.7013,1001.546
1.585758209,10.17297,11.66428,-2.311141,-0.457589,0.117964,0.899051,28.04647,-42.33608,-31.7013,1001.552
1.588255882,9.615312,12.67679,-2.678342,-0.4557116,0.1224059,0.9014065,28.04647,-42.33608,-31.7013,1001.552
1.590752125,8.99569,13.98709,-3.167944,-0.4391029,0.1228533,0.9080809,28.04647,-42.33608,-31.7013,1001.552
1.593252182,8.623919,15.23784,-3.779946,-0.4323678,0.1282548,0.9018286,28.04647,-42.33608,-31.7013,1001.552
1.595746994,9.057652,16.6077,-4.391948,-0.4381264,0.1222601,0.8985311,28.04647,-42.33608,-31.7013,1001.552
1.598244190,9.987084,18.39448,-4.575548,-0.4476111,0.1331193,0.8908166,28.04647,-42.33608,-31.7013,1001.552
1.600741386,10.85455,20.18126,-5.554751,-0.4526303,0.1414318,0.9031795,28.04647,-42.33608,-31.7013,1001.552
1.603239059,10.79259,22.0276,-6.472754,-0.4534471,0.132727,0.9070634,28.41397,-42.32936,-31.76585,1001.552
1.605736256,10.85455,23.3379,-6.901156,-0.4643702,0.1421052,0.899838,28.41397,-42.32936,-31.76585,1001.552
1.608233452,10.91652,24.76733,-7.696759,-0.4691829,0.1381307,0.9008245,28.41397,-42.32936,-31.76585,1001.552
1.610730648,11.1024,26.13719,-8.675961,-0.4521689,0.1428853,0.9022136,28.41397,-42.32936,-31.76585,1001.552
1.613228321,11.96987,27.92397,-9.777565,-0.4406801,0.1297512,0.9180635,28.41397,-42.32936,-31.76585,1001.552
1.615725517,12.21772,30.30634,-10.75677,-0.4381929,0.1274095,0.920467,28.41397,-42.32936,-31.76585,1001.552
1.618222713,13.20911,32.86739,-11.30757,-0.4383793,0.1109955,0.9277492,28.41397,-42.32936,-31.76585,1001.552
1.620719433,13.76677,35.30932,-11.67477,-0.4339205,0.1083523,0.9406624,28.41397,-42.32936,-31.76585,1001.552
1.623216629,14.26247,38.52552,-12.22557,-0.4372412,0.1035804,0.9521624,28.41397,-42.32936,-31.76585,1001.552
1.625713825,14.88209,41.92041,-12.59277,-0.4413264,0.08474819,0.9303266,28.41397,-42.32936,-31.76585,1001.552
1.628211498,16.74095,44.83881,-12.40917,-0.4205661,0.07110929,0.929934,28.41397,-42.32936,-31.76585,1001.552
1.630712032,19.34336,48.53149,-12.34797,-0.4118687,0.07729589,0.9427817,28.41397,-42.32936,-31.76585,1001.552
1.633205891,20.21083,51.1521,-12.22557,-0.4371748,0.1170263,0.7968254,28.41397,-42.32936,-31.76585,1001.552
1.635703087,21.82184,54.84477,-12.77637,-0.3322331,-0.001863942,0.9944098,28.41397,-42.32936,-31.76585,1001.552
1.638200760,35.08173,65.02941,-12.71517,-0.3496306,-0.01061016,1.021709,28.41397,-42.32936,-31.76585,1001.552
1.640697956,34.27623,67.65002,-12.22557,-0.4158672,0.0868815,1.011977,28.41397,-42.32936,-31.76585,1001.552
1.643195152,31.79774,72.53388,-13.14358,-0.3712738,0.05440373,1.052784,28.41397,-42.32936,-31.76585,1001.552
1.645692348,33.6566,79.26408,-13.26598,-0.379517,0.04773149,1.003159,28.41397,-42.32936,-31.76585,1001.552
1.648190021,35.82528,84.86266,-13.02118,-0.3815104,0.04649542,0.9506263,28.41397,-42.32936,-31.76585,1001.552
1.650686741,39.79085,91.11639,-12.47037,-0.3661329,0.03257346,0.9378197,28.41397,-42.32936,-31.76585,1001.552
1.653183937,45.24352,98.08482,-11.73597,-0.348942,0.02828142,0.9521701,28.42109,-42.65698,-29.59088,1001.552
1.655681133,50.26244,104.9937,-11.42997,-0.3454452,0.0517628,0.9596432,28.42109,-42.65698,-29.59088,1001.552
1.658178329,54.47586,112.2004,-11.42997,-0.348419,0.05656359,0.9963908,28.42109,-42.65698,-29.59088,1001.552
1.660676002,57.63593,119.8835,-11.00157,-0.3605252,0.0534967,1.040365,28.42109,-42.65698,-29.59088,1001.552
1.663173199,59.43283,126.9115,-10.38957,-0.375877,0.06595632,1.052704,28.42109,-42.65698,-29.59088,1001.552
1.665670395,58.9991,133.5822,-9.104363,-0.3665377,0.06337943,1.062748,28.42109,-42.65698,-29.59088,1001.552
1.668167591,57.94574,140.6697,-8.06396,-0.350466,0.06616542,1.063674,28.42109,-42.65698,-29.59088,1001.552
1.670665264,58.62733,148.2338,-6.656355,-0.327978,0.03680947,1.047152,28.42109,-42.65698,-29.59088,1001.552
1.673162460,60.67207,155.9765,-4.881549,-0.3221543,0.06479041,1.024499,28.42109,-42.65698,-29.59088,1001.552
1.675659656,63.58429,163.4214,-3.902346,-0.2911156,0.07765307,1.028688,28.42109,-42.65698,-29.59088,1001.552
1.678156853,65.75297,171.5215,-1.148337,-0.2950131,0.105467,1.04521,28.42109,-42.65698,-29.59088,1001.552
1.680653572,66.80632,179.3237,0.5652685,-0.3144928,0.1576796,1.059656,28.42109,-42.65698,-29.59088,1001.552
1.683150768,66.80632,187.0069,0.8100693,-0.302559,0.1747516,1.082455,28.42109,-42.65698,-29.59088,1001.552
1.685648441,65.31923,194.5709,1.605672,-0.2908818,0.2070482,1.11852,28.42109,-42.65698,-29.59088,1001.552
1.688145637,61.91132,201.9563,1.972873,-0.2835663,0.2366756,1.143621,28.42109,-42.65698,-29.59088,1001.552
1.690642834,57.38808,208.9247,1.11607,-0.2792861,0.2708223,1.148629,28.42109,-42.65698,-29.59088,1001.552
1.693140030,53.17466,216.0122,0.0144667,-0.2848459,0.2814219,1.151423,28.42109,-42.65698,-29.59088,1001.552
1.695637703,48.15573,223.3976,-1.454338,-0.3224151,0.3057689,1.144584,28.42109,-42.65698,-29.59088,1001.552
1.698134899,43.32269,230.6043,-3.657546,-0.3687848,0.3303798,1.13536,28.42109,-42.65698,-29.59088,1001.552
1.700632095,38.86142,237.9896,-6.717556,-0.3919253,0.3399678,1.127185,28.42109,-42.65698,-29.59088,1001.552
1.703129291,35.39154,245.1367,-9.899966,-0.4317407,0.3518142,1.097031,31.38213,-43.60314,-24.47526,1001.552
1.705626965,33.71857,252.2839,-13.51078,-0.4487203,0.371659,1.083525,31.38213,-43.60314,-24.47526,1001.552
1.708124161,33.78053,259.5501,-18.34559,-0.4269845,0.387627,1.116834,31.38213,-43.60314,-24.47526,1001.552
1.710620880,32.16951,265.5656,-24.46561,-0.3680961,0.4272533,1.116995,31.38213,-43.60314,-24.47526,1001.552
1.713118076,25.35368,270.509,-29.79003,-0.3155299,0.385038,1.143059,31.38213,-43.60314,-24.47526,1001.552
1.715615272,21.14026,277.7157,-32.42164,-0.4203812,0.3719054,1.092582,31.38213,-43.60314,-24.47526,1001.552
1.718112469,21.01633,283.2547,-36.27726,-0.5981743,0.3951488,1.04762,31.38213,-43.60314,-24.47526,1001.552
1.720610142,20.52064,287.1856,-41.29567,-0.6890049,0.368413,1.082256,31.38213,-43.60314,-24.47526,1001.552
1.723107338,18.16608,291.6526,-45.27369,-0.7411218,0.3347165,1.115008,31.38213,-43.60314,-24.47526,1001.552
1.725604534,15.37779,296.1195,-49.4353,-0.7509759,0.2838084,1.100092,31.38213,-43.60314,-24.47526,1001.552
1.728101730,15.50171,299.8718,-53.41331,-0.7326462,0.2129039,1.069539,31.38213,-43.60314,-24.47526,1001.552
1.730599403,19.59121,302.6115,-55.73892,-0.7530465,0.1783268,1.058334,31.38213,-43.60314,-24.47526,1001.552
1.733101368,25.60153,304.8152,-58.12573,-0.7925962,0.1509803,1.073837,31.38213,-43.60314,-24.47526,1001.552
1.735593796,34.1523,305.8277,-58.79893,-0.8673434,0.1796783,1.088962,31.38213,-43.60314,-24.47526,1001.552
1.738090992,43.88035,304.7556,-57.88093,-0.9559079,0.2725233,1.130386,31.38213,-43.60314,-24.47526,1001.552
1.740587711,49.76675,302.4328,-57.39133,-1.042798,0.3864221,1.254294,31.38213,-43.60314,-24.47526,1001.552
1.743084907,50.75814,301.0629,-58.18693,-1.146389,0.4756775,1.341609,31.38213,-43.60314,-24.47526,1001.552
1.745582581,49.70478,298.4423,-60.14533,-1.254154,0.5515164,1.41278,31.38213,-43.60314,-24.47526,1001.552
1.748079777,47.90788,293.7372,-63.08294,-1.400509,0.6522717,1.448928,31.38213,-43.60314,-24.47526,1001.55
1.750576973,45.30548,286.59,-68.16256,-1.503398,0.754052,1.491729,31.38213,-43.60314,-24.47526,1001.55
1.753074169,39.04731,279.0856,-73.54817,-1.580353,0.8547184,1.554585,35.00577,-43.72295,-15.48326,1001.55
1.755571842,28.14198,272.6532,-79.54579,-1.619976,0.912674,1.558972,35.00577,-43.72295,-15.48326,1001.55
1.758069038,17.23665,266.459,-86.82862,-1.579762,0.8723817,1.495229,35.00577,-43.72295,-15.48326,1001.55
1.760566235,11.35025,259.7883,-93.37704,-1.490796,0.7825642,1.425601,35.00577,-43.72295,-15.48326,1001.55
1.763063431,8.499994,253.5346,-98.02825,-1.380443,0.7003316,1.380267,35.00577,-43.72295,-15.48326,1001.55
1.765561104,8.99569,248.1147,-101.6391,-1.311097,0.6723147,1.352244,35.00577,-43.72295,-15.48326,1001.55
1.768057823,12.77538,242.5757,-105.6171,-1.285466,0.6610442,1.375715,35.00577,-43.72295,-15.48326,1001.55
1.770555019,15.93544,236.2029,-109.4115,-1.264997,0.6682433,1.444913,35.00577,-43.72295,-15.48326,1001.55
1.773052216,15.81152,228.9962,-111.8595,-1.260146,0.7011423,1.500562,35.00577,-43.72295,-15.48326,1001.55
1.775549412,12.21772,220.8961,-112.9611,-1.287701,0.7411792,1.525131,35.00577,-43.72295,-15.48326,1001.55
1.778047085,4.906192,212.0218,-113.8179,-1.315235,0.7513062,1.527941,35.00577,-43.72295,-15.48326,1001.55
1.780544281,-5.999136,202.8496,-115.4703,-1.32,0.7437478,1.515101,35.00577,-43.72295,-15.48326,1001.55
1.783044815,-19.07314,194.2731,-119.3259,-1.260243,0.7040174,1.461851,35.00577,-43.72295,-15.48326,1001.55
1.785538673,-30.35024,187.0069,-123.4263,-1.139366,0.6594479,1.384238,35.00577,-43.72295,-15.48326,1001.55
1.788035870,-39.21082,179.9789,-125.9967,-0.9837198,0.6375052,1.308833,35.00577,-43.72295,-15.48326,1001.548
1.790533543,-47.14196,172.4744,-127.8939,-0.8178391,0.6197665,1.276858,35.00577,-43.72295,-15.48326,1001.548
1.793030739,-54.57741,165.4464,-128.812,-0.6610497,0.5910873,1.240191,35.00577,-43.72295,-15.48326,1001.548
1.795527935,-61.76501,158.2397,-127.9551,-0.4642578,0.5386055,1.210834,35.00577,-43.72295,-15.48326,1001.548
1.798025131,-67.46553,150.7352,-124.6503,-0.2413752,0.502828,1.190419,35.00577,-43.72295,-15.48326,1001.548
1.800521851,-70.19186,142.6352,-119.3259,0.02694463,0.4393909,1.170652,35.00577,-43.72295,-15.48326,1001.548
1.803019524,-65.91647,132.8675,-111.7371,0.3063621,0.4148643,1.210309,40.06217,-41.56619,-4.874558,1001.548
1.805516720,-59.22457,122.6828,-101.3943,0.4707002,0.4130858,1.356391,40.06217,-41.56619,-4.874558,1001.548
1.808013916,-56.5602,116.6673,-85.91061,0.2389641,0.5026703,1.31242,40.06217,-41.56619,-4.874558,1001.548
1.810511112,-45.90272,115.8335,-68.71336,-0.4515237,0.6346052,1.036272,40.06217,-41.56619,-4.874558,1001.548
1.813008785,-22.17124,110.8305,-59.53333,-0.826926,0.6128102,0.9191425,40.06217,-41.56619,-4.874558,1001.548
1.815505981,0.6308081,97.48923,-55.55532,-0.3998404,0.5998442,1.256693,40.06217,-41.56619,-4.874558,1001.548
1.818003178,6.517207,84.68398,-51.3937,0.1508705,0.6993666,1.673616,40.06217,-41.56619,-4.874558,1001.548
1.820500374,-6.680719,76.70303,-46.06929,0.2926647,0.7477855,1.689427,40.06217,-41.56619,-4.874558,1001.548
1.822998047,-22.85283,69.61548,-40.80607,0.2346113,0.6981729,1.415159,40.06217,-41.56619,-4.874558,1001.548
1.825495243,-27.87175,62.46836,-36.52206,0.225119,0.6393229,1.170542,40.06217,-41.56619,-4.874558,1001.548
1.827991962,-23.84422,56.63155,-33.89045,0.2848222,0.6259743,1.057396,40.06217,-41.56619,-4.874558,1001.551
1.830489159,-17.89586,53.23667,-31.99324,0.3753579,0.6414475,1.016153,40.06217,-41.56619,-4.874558,1001.551
1.832986355,-14.5499,51.27121,-30.15723,0.473184,0.6330928,0.9965711,40.06217,-41.56619,-4.874558,1001.551
1.835483551,-12.81497,50.08003,-28.07643,0.5230871,0.5461329,0.9852206,40.06217,-41.56619,-4.874558,1001.551
1.837981224,-9.902747,49.06752,-25.87322,0.467195,0.4446602,0.9305685,40.06217,-41.56619,-4.874558,1001.551
1.840478420,-4.202235,46.20868,-24.22081,0.3665012,0.3644372,0.9030178,40.06217,-41.56619,-4.874558,1001.551
1.842975616,2.17986,41.97997,-22.50721,0.3053898,0.3157032,0.9511679,40.06217,-41.56619,-4.874558,1001.551
1.845472813,6.083472,37.81081,-20.9772,0.2831454,0.3073803,1.017636,40.06217,-41.56619,-4.874558,1001.551
1.847970486,7.384676,33.40342,-19.8144,0.2777539,0.3094185,1.033387,40.06217,-41.56619,-4.874558,1001.551
1.850467682,7.880373,28.57912,-18.52919,0.2911972,0.2945097,1.022499,40.06217,-41.56619,-4.874558,1001.551
1.852964878,8.809804,24.11217,-17.12159,0.3127912,0.2867625,0.9895831,43.9766,-37.41125,-1.125583,1001.551
1.855462074,10.6067,20.18126,-15.83639,0.3473754,0.2899304,0.9532378,43.9766,-37.41125,-1.125583,1001.551
1.857958794,13.51892,16.6077,-14.24518,0.3635179,0.2876315,0.9370041,43.9766,-37.41125,-1.125583,1001.551
1.860455990,16.74095,13.51062,-12.40917,0.3682403,0.2964075,0.9321621,43.9766,-37.41125,-1.125583,1001.551
1.862953663,18.90962,10.29442,-10.69557,0.3734621,0.305355,0.9392602,43.9766,-37.41125,-1.125583,1001.551
1.865450859,19.90102,7.376011,-9.104363,0.3620457,0.3158737,0.9454014,43.9766,-37.41125,-1.125583,1001.551
1.867952824,19.96298,4.576724,-7.329557,0.3615828,0.3137867,0.9353856,43.9766,-37.41125,-1.125583,1001.551
1.870445251,20.02494,1.777436,-5.248751,0.365685,0.3026509,0.9311637,43.9766,-37.41125,-1.125583,1001.551
1.872942924,20.52064,-1.140969,-3.045543,0.3610744,0.286939,0.9255465,43.9766,-37.41125,-1.125583,1001.551
1.875440121,21.26418,-4.059375,-0.2915343,0.3436506,0.2778127,0.9246666,43.9766,-37.41125,-1.125583,1001.551
1.877937317,21.51203,-6.679984,2.217674,0.3350091,0.26938,0.9252095,43.9766,-37.41125,-1.125583,1001.551
1.880434513,21.45007,-9.002797,4.604482,0.3268838,0.2583058,0.9090527,43.9766,-37.41125,-1.125583,1001.551
1.882932186,20.83045,-11.20649,7.664492,0.3243747,0.2337846,0.8948992,43.9766,-37.41125,-1.125583,1001.551
1.885429382,21.14026,-13.23151,10.8469,0.3203673,0.2111925,0.8821658,43.9766,-37.41125,-1.125583,1001.551
1.887926102,22.13165,-15.07785,14.27411,0.3138416,0.1929348,0.870836,43.9766,-37.41125,-1.125583,1001.551
1.890423298,23.55678,-16.80507,18.19093,0.3043067,0.1795766,0.8675933,43.9766,-37.41125,-1.125583,1001.551
1.892920494,25.78742,-18.53229,22.04654,0.2966409,0.171152,0.8671802,43.9766,-37.41125,-1.125583,1001.551
1.895418167,28.08001,-19.96171,25.96335,0.2763581,0.1580996,0.8677629,43.9766,-37.41125,-1.125583,1001.551
1.897915363,31.05419,-21.62937,30.18617,0.2413442,0.1502701,0.8831246,43.9766,-37.41125,-1.125583,1001.551
1.900412559,34.95781,-23.41615,34.71498,0.1944593,0.1503805,0.8941376,43.9766,-37.41125,-1.125583,1001.551
1.902909756,39.66693,-26.15588,39.36619,0.1373919,0.1476485,0.9266718,43.22305,-36.29617,0.1322913,1001.551
1.905406952,44.80978,-29.43164,44.75181,0.05007949,0.1434815,0.9730864,43.22305,-36.29617,0.1322913,1001.551
1.907904625,50.13852,-34.25594,50.93303,-0.05069623,0.1551553,1.027516,43.22305,-36.29617,0.1322913,1001.549
1.910401821,54.59979,-40.21187,56.99185,-0.1541894,0.182946,1.093296,43.22305,-36.29617,0.1322913,1001.549
1.912899017,56.64454,-46.88251,63.11187,-0.2562772,0.2135704,1.150935,43.22305,-36.29617,0.1322913,1001.549
1.915396214,56.58258,-54.68478,69.1095,-0.331843,0.2347597,1.186653,43.22305,-36.29617,0.1322913,1001.549
1.917892933,55.96296,-63.1422,74.92352,-0.4002575,0.265819,1.222774,43.22305,-36.29617,0.1322913,1001.549
1.922887802,51.3158,-81.06956,85.81715,-0.4666518,0.3497593,1.28861,43.22305,-36.29617,0.1322913,1001.549
1.922887802,51.3158,-81.06956,85.81715,-0.4666518,0.3497593,1.28861,43.22305,-36.29617,0.1322913,1001.549
1.925384998,47.96984,-90.12257,90.71317,-0.4935389,0.3795704,1.309907,43.22305,-36.29617,0.1322913,1001.549
1.927882195,43.88035,-99.17558,94.87478,-0.5207644,0.3999313,1.315032,43.22305,-36.29617,0.1322913,1001.549
1.930379868,39.41908,-107.8712,98.7916,-0.5457864,0.4068491,1.327895,43.22305,-36.29617,0.1322913,1001.549
1.932877064,34.27623,-116.8051,101.974,-0.5633354,0.4056872,1.341766,43.22305,-36.29617,0.1322913,1001.549
1.935374260,28.45179,-125.5008,104.5444,-0.5728881,0.3932931,1.338038,43.22305,-36.29617,0.1322913,1001.549
1.940369129,15.56367,-142.0583,107.7268,-0.5566751,0.3032097,1.292816,43.22305,-36.29617,0.1322913,1001.549
1.940369129,15.56367,-142.0583,107.7268,-0.5566751,0.3032097,1.292816,43.22305,-36.29617,0.1322913,1001.549
1.945363522,5.897585,-156.1143,108.4612,-0.5323726,0.1953018,1.209025,43.22305,-36.29617,0.1322913,1001.549
1.945363522,5.897585,-156.1143,108.4612,-0.5323726,0.1953018,1.209025,43.22305,-36.29617,0.1322913,1001.549
1.947860718,2.489671,-161.6533,107.6656,-0.5216622,0.1401386,1.169766,43.22305,-36.29617,0.1322913,1001.553
1.950357437,-0.05077496,-166.5967,106.258,-0.5049456,0.07683195,1.129129,43.22305,-36.29617,0.1322913,1001.553
1.952854633,-1.351979,-171.0041,104.3608,-0.5046707,0.003889591,1.084271,42.51297,-37.80455,-0.7334161,1001.553
1.957849503,1.250429,-179.2828,99.52599,-0.5115752,-0.1052617,1.030122,42.51297,-37.80455,-0.7334161,1001.553
1.960346699,3.914799,-182.916,96.28239,-0.5277147,-0.1325228,1.014564,42.51297,-37.80455,-0.7334161,1001.553
1.962843895,6.579169,-186.3108,92.79398,-0.548879,-0.1515487,1.005636,42.51297,-37.80455,-0.7334161,1001.553
1.962843895,6.579169,-186.3108,92.79398,-0.548879,-0.1515487,1.005636,42.51297,-37.80455,-0.7334161,1001.553
1.965341568,9.305501,-189.6461,88.87716,-0.5745984,-0.161384,1.001422,42.51297,-37.80455,-0.7334161,1001.553
1.970335960,13.64285,-196.0786,80.00313,-0.6245859,-0.1503959,1.031944,42.51297,-37.80455,-0.7334161,1001.553
1.970335960,13.64285,-196.0786,80.00313,-0.6245859,-0.1503959,1.031944,42.51297,-37.80455,-0.7334161,1001.553
1.975330830,15.93544,-203.1661,70.7007,-0.6784911,-0.1131057,1.038875,42.51297,-37.80455,-0.7334161,1001.553
1.977828026,16.43114,-206.6801,66.29429,-0.6983157,-0.09637293,1.051186,42.51297,-37.80455,-0.7334161,1001.553
1.980324745,16.43114,-210.075,61.82667,-0.7143077,-0.07634591,1.049619,42.51297,-37.80455,-0.7334161,1001.553
1.982821941,16.30722,-213.4103,57.48145,-0.7209736,-0.05908909,1.043768,42.51297,-37.80455,-0.7334161,1001.553
1.985319138,16.24525,-216.2096,53.68704,-0.733906,-0.04506306,1.060394,42.51297,-37.80455,-0.7334161,1001.553
1.987816334,15.87348,-219.2471,50.13743,-0.745409,-0.02907722,1.07605,42.51297,-37.80455,-0.7334161,1001.553
1.990314007,15.12994,-222.4633,46.83262,-0.7538471,-0.0208511,1.08746,42.51297,-37.80455,-0.7334161,1001.547
2.042756081,7.012903,-238.4252,77.00432,-0.9415378,0.4229077,1.097778,38.2364,-42.38486,-7.026434,1001.552
2.045253277,4.472457,-237.2936,81.53313,-0.9631701,0.4572557,1.087037,38.2364,-42.38486,-7.026434,1001.552
2.047750950,1.436315,-236.3406,86.00075,-0.983295,0.4898035,1.084429,38.2364,-42.38486,-7.026434,1001.552
2.050248146,-1.723751,-234.9708,90.10117,-1.000535,0.5260369,1.09851,38.2364,-42.38486,-7.026434,1001.552
2.052745342,-5.565401,-233.5414,94.38518,-1.017671,0.5552378,1.094968,33.9407,-45.867,-13.78519,1001.552
2.055242538,-9.778823,-231.9928,98.54679,-1.035754,0.5829939,1.093825,33.9407,-45.867,-13.78519,1001.552
2.057740212,-13.93028,-230.5038,102.8308,-1.04804,0.5864978,1.08521,33.9407,-45.867,-13.78519,1001.552
2.060237408,-17.77193,-228.8362,107.2984,-1.062827,0.5933462,1.076571,33.9407,-45.867,-13.78519,1001.552
2.062734604,-21.55162,-227.3472,111.5212,-1.075111,0.5974834,1.078938,33.9407,-45.867,-13.78519,1001.552
2.065231800,-25.51719,-225.6795,115.4992,-1.086307,0.5946865,1.069411,33.9407,-45.867,-13.78519,1001.552
2.067728519,-29.54473,-223.9523,119.3549,-1.089084,0.5852288,1.056583,33.9407,-45.867,-13.78519,1001.552
2.070225716,-33.38638,-221.8677,123.1493,-1.095037,0.5620965,1.042899,33.9407,-45.867,-13.78519,1001.55
2.072723389,-35.98878,-219.7236,126.5765,-1.085723,0.5313768,1.018274,33.9407,-45.867,-13.78519,1001.55
2.075220585,-37.41391,-217.2221,129.6977,-1.089508,0.4955205,0.9936939,33.9407,-45.867,-13.78519,1001.55
2.077717781,-37.53784,-214.7802,132.8801,-1.109636,0.4724851,0.9738082,33.9407,-45.867,-13.78519,1001.55
2.080214977,-37.04214,-212.3978,135.7565,-1.152721,0.4500941,0.9663507,33.9407,-45.867,-13.78519,1001.55
2.082712650,-36.91822,-210.3132,138.5105,-1.20961,0.4352768,0.9664899,33.9407,-45.867,-13.78519,1001.55
2.085209847,-37.41391,-208.4073,141.2033,-1.249135,0.4052332,0.9619507,33.9407,-45.867,-13.78519,1001.55
2.087707043,-38.0955,-206.4419,143.3454,-1.274352,0.3943863,0.9539227,33.9407,-45.867,-13.78519,1001.55
2.090204239,-38.21942,-204.9529,145.4261,-1.289207,0.4039209,0.9285471,33.9407,-45.867,-13.78519,1001.55
2.092701912,-38.28138,-203.2257,147.3846,-1.306919,0.4107836,0.9256425,33.9407,-45.867,-13.78519,1001.55
2.095199108,-39.08689,-201.2007,148.8534,-1.336925,0.4222495,0.9236677,33.9407,-45.867,-13.78519,1001.55
2.097695828,-39.83044,-199.1161,150.0162,-1.363376,0.4259855,0.91888,33.9407,-45.867,-13.78519,1001.55
2.100193024,-40.32613,-197.2102,150.8118,-1.403524,0.4309155,0.91648,33.9407,-45.867,-13.78519,1001.55
2.102690220,-41.31753,-195.483,151.0566,-1.443593,0.4320921,0.9236602,27.11552,-48.3654,-20.93961,1001.55
2.105187416,-43.30031,-194.1131,150.9954,-1.479289,0.4342886,0.9274868,27.11552,-48.3654,-20.93961,1001.55
2.107685089,-46.52234,-193.1602,150.567,-1.496699,0.4247414,0.9313864,27.11552,-48.3654,-20.93961,1001.55
2.110182285,-49.43456,-192.0285,149.7714,-1.516643,0.4193225,0.9214059,27.11552,-48.3654,-20.93961,1001.542
2.112679482,-51.1695,-191.1947,148.6698,-1.542895,0.4118773,0.9152647,27.11552,-48.3654,-20.93961,1001.542
2.115176678,-52.84248,-190.9565,147.1398,-1.554231,0.4180606,0.9238253,27.11552,-48.3654,-20.93961,1001.542
2.117674351,-55.13507,-190.5991,145.4874,-1.575358,0.4249012,0.9247442,27.11552,-48.3654,-20.93961,1001.542
2.120171547,-57.73748,-190.5991,143.5901,-1.584749,0.4303964,0.9151572,27.11552,-48.3654,-20.93961,1001.542
2.122668743,-60.27793,-190.4204,141.2645,-1.581385,0.4333494,0.9127458,27.11552,-48.3654,-20.93961,1001.542
2.125165939,-62.63248,-190.3013,138.6941,-1.569267,0.4384263,0.9098365,27.11552,-48.3654,-20.93961,1001.542
2.127663612,-64.80116,-190.3013,136.1849,-1.55132,0.4437924,0.8830385,27.11552,-48.3654,-20.93961,1001.542
2.130159855,-65.97844,-189.944,133.5533,-1.534332,0.4493953,0.8753459,27.11552,-48.3654,-20.93961,1001.542
2.132657528,-67.09376,-189.2292,130.6157,-1.512306,0.4457214,0.8557749,27.11552,-48.3654,-20.93961,1001.542
2.135154724,-68.08515,-188.5145,127.9229,-1.483919,0.4133993,0.825896,27.11552,-48.3654,-20.93961,1001.542
2.137651920,-68.76673,-187.502,125.7197,-1.469534,0.3430785,0.7728909,27.11552,-48.3654,-20.93961,1001.542
2.140149117,-67.52749,-186.0726,123.9449,-1.459604,0.2476834,0.7038267,27.11552,-48.3654,-20.93961,1001.542
2.142646790,-63.80977,-184.1667,122.2925,-1.469791,0.1843508,0.6321573,27.11552,-48.3654,-20.93961,1001.542
2.145143986,-57.55159,-182.4395,120.2729,-1.473923,0.1654498,0.5692429,27.11552,-48.3654,-20.93961,1001.542
2.147641182,-50.24007,-180.8314,117.8861,-1.483966,0.178959,0.5428808,27.11552,-48.3654,-20.93961,1001.542
2.150138378,-44.97329,-178.6872,114.826,-1.495681,0.2040837,0.5164369,27.11552,-48.3654,-20.93961,1001.54
2.152636051,-41.13164,-176.1857,110.6032,-1.51007,0.2139208,0.4767289,15.1768,-52.69458,-24.73567,1001.54
2.155133247,-36.98018,-173.2078,105.8296,-1.523695,0.205763,0.3975029,15.1768,-52.69458,-24.73567,1001.54
2.157630444,-32.2091,-170.0511,100.5052,-1.53766,0.1905794,0.3379114,15.1768,-52.69458,-24.73567,1001.54
2.160127163,-27.06625,-166.5967,95.05838,-1.555029,0.1755219,0.2931285,15.1768,-52.69458,-24.73567,1001.54
2.162624359,-22.7289,-162.9636,89.06076,-1.550825,0.1560737,0.2483644,15.1768,-52.69458,-24.73567,1001.54
2.165122032,-18.32959,-158.318,83.00194,-1.543426,0.1197696,0.1726704,15.1768,-52.69458,-24.73567,1001.54
2.167619228,-12.19534,-153.851,77.24912,-1.559505,0.08604061,0.1093912,15.1768,-52.69458,-24.73567,1001.54
2.170116425,-5.131667,-149.2054,71.3739,-1.574646,0.05546348,0.06232944,15.1768,-52.69458,-24.73567,1001.54
2.172613621,1.498277,-144.3811,65.31509,-1.607555,0.03641308,0.0343025,15.1768,-52.69458,-24.73567,1001.54
2.175111294,7.570562,-139.795,59.62346,-1.641,0.01973998,0.003392921,15.1768,-52.69458,-24.73567,1001.54
2.177608490,13.395,-135.3281,54.05424,-1.666587,0.000827813,-0.0260723,15.1768,-52.69458,-24.73567,1001.54
2.180105686,18.66178,-130.9802,48.85223,-1.689646,0.004250765,-0.0595197,15.1768,-52.69458,-24.73567,1001.54
2.182602882,23.99051,-126.9898,44.01741,-1.725118,0.01973685,-0.07871594,15.1768,-52.69458,-24.73567,1001.54
2.185100555,28.01805,-123.2375,39.611,-1.77316,0.05596986,-0.08754423,15.1768,-52.69458,-24.73567,1001.54
2.187597752,27.95609,-119.1875,34.89858,-1.810982,0.09498526,-0.08636741,15.1768,-52.69458,-24.73567,1001.54
2.190094471,24.54817,-114.661,30.12497,-1.834537,0.1266843,-0.110463,15.1768,-52.69458,-24.73567,1001.543
2.192591667,21.57399,-110.611,25.96335,-1.841546,0.1325775,-0.1663877,15.1768,-52.69458,-24.73567,1001.543
2.195088863,19.34336,-106.8587,22.53614,-1.846853,0.1544482,-0.1923345,15.1768,-52.69458,-24.73567,1001.543
2.197586060,15.43975,-103.0469,18.74173,-1.837772,0.1640187,-0.2172467,15.1768,-52.69458,-24.73567,1001.543
2.200083733,10.54474,-98.63955,15.37572,-1.814243,0.1578854,-0.2415776,15.1768,-52.69458,-24.73567,1001.543
2.202580929,5.277965,-93.81525,12.19331,-1.794026,0.1452666,-0.273503,2.878025,-53.66505,-22.97512,1001.543
2.205080986,0.5688459,-89.3483,9.133297,-1.779267,0.1367775,-0.3145302,2.878025,-53.66505,-22.97512,1001.543
2.207575321,-4.388122,-84.52399,6.256887,-1.753716,0.1261833,-0.3488615,2.878025,-53.66505,-22.97512,1001.543
2.210072994,-9.345088,-78.98498,3.196877,-1.72214,0.106488,-0.383609,2.878025,-53.66505,-22.97512,1001.543
2.212570190,-14.30206,-72.96949,0.0144667,-1.691116,0.09014709,-0.4207684,2.878025,-53.66505,-22.97512,1001.543
2.215067387,-18.6394,-66.35841,-3.351544,-1.649126,0.06077958,-0.4693053,2.878025,-53.66505,-22.97512,1001.543
2.217564583,-21.86143,-59.56864,-6.472754,-1.611931,0.02706823,-0.5082551,2.878025,-53.66505,-22.97512,1001.543
2.220061302,-23.72029,-52.06417,-9.593965,-1.575712,-0.006644796,-0.5457713,2.878025,-53.66505,-22.97512,1001.543
2.222558498,-24.21599,-44.02367,-12.59277,-1.549936,-0.02987609,-0.5814455,2.878025,-53.66505,-22.97512,1001.543
2.225056171,-23.41048,-36.04272,-15.59158,-1.514954,-0.04721518,-0.5908957,2.878025,-53.66505,-22.97512,1001.543
2.227553368,-21.73751,-28.12133,-18.16199,-1.493651,-0.06372313,-0.5888796,2.878025,-53.66505,-22.97512,1001.543
2.230050564,-19.01118,-19.90215,-20.5488,-1.471227,-0.06074904,-0.5841375,2.878025,-53.66505,-22.97512,1001.543
2.232547760,-15.66522,-11.86164,-22.62961,-1.462755,-0.04131766,-0.5608755,2.878025,-53.66505,-22.97512,1001.543
2.235045433,-12.50515,-4.357172,-24.22081,-1.465792,-0.005997099,-0.5291222,2.878025,-53.66505,-22.97512,1001.543
2.237542629,-9.840785,2.849504,-25.62842,-1.467887,0.03310882,-0.4701697,2.878025,-53.66505,-22.97512,1001.543
2.240039825,-8.353695,9.460587,-26.73002,-1.469536,0.07408267,-0.4174403,2.878025,-53.66505,-22.97512,1001.543
2.242537022,-7.796036,15.23784,-27.89282,-1.461872,0.1132956,-0.3661368,2.878025,-53.66505,-22.97512,1001.543
2.245034694,-7.981923,20.53862,-28.56603,-1.44311,0.1606179,-0.3072551,2.878025,-53.66505,-22.97512,1001.543
2.247531891,-9.159202,25.77983,-28.87203,-1.415373,0.1967484,-0.2645395,2.878025,-53.66505,-22.97512,1001.543
2.250028610,-10.83218,30.84237,-29.11683,-1.370502,0.2302059,-0.231368,-1.439176,-55.47622,-19.49086,1001.543
2.252525806,-12.62908,35.66668,-29.17803,-1.320189,0.2599223,-0.1962624,-1.439176,-55.47622,-19.49086,1001.543
2.255023002,-14.79775,40.66966,-29.05563,-1.273688,0.2847984,-0.1539551,-1.439176,-55.47622,-19.49086,1001.543
2.257520199,-16.8425,45.79176,-28.32123,-1.215716,0.2962955,-0.1139474,-1.439176,-55.47622,-19.49086,1001.543
2.260017872,-18.57744,50.8543,-27.40322,-1.175362,0.3092784,-0.07967187,-1.439176,-55.47622,-19.49086,1001.543
2.262515068,-20.56023,55.85728,-26.30162,-1.128981,0.3126105,-0.05058536,-1.439176,-55.47622,-19.49086,1001.543
2.265012264,-22.17124,61.0985,-25.01641,-1.092978,0.3218634,-0.03395427,-1.439176,-55.47622,-19.49086,1001.543
2.267509460,-23.41048,66.33971,-23.48641,-1.055544,0.333716,-0.006833951,-1.439176,-55.47622,-19.49086,1001.543
2.270007133,-23.59637,71.28313,-22.32361,-0.9043678,0.3487353,0.001568046,-1.439176,-55.47622,-19.49086,1001.545
2.272504330,-18.82529,77.95378,-20.61,-0.7345386,0.7600814,-0.118017,-1.439176,-55.47622,-19.49086,1001.545
2.275001526,-8.539581,87.84062,-28.74963,-0.8733352,1.409356,0.1487451,-1.439176,-55.47622,-19.49086,1001.545
2.277498722,-51.41735,101.6584,-46.37529,-0.4608804,0.9942439,1.040876,-1.439176,-55.47622,-19.49086,1001.545
2.279995441,-102.7839,111.9026,-48.8845,0.3586962,0.3194968,0.643016,-1.439176,-55.47622,-19.49086,1001.545
2.282496452,-96.64967,115.5953,-29.54523,0.4826854,-0.1563577,-0.02621309,-1.439176,-55.47622,-19.49086,1001.545
2.284990311,-42.92854,114.9997,-8.002759,0.2315349,-0.3462152,-0.05862503,-1.439176,-55.47622,-19.49086,1001.545
2.287487507,12.34164,115.357,0.6876689,0.01361878,-0.2699889,0.6498132,-1.439176,-55.47622,-19.49086,1001.545
2.289984703,45.73921,120.36,1.972873,-0.1230743,0.01293543,1.290333,-1.439176,-55.47622,-19.49086,1001.545
2.292482376,59.06106,122.8615,4.359681,-0.1103029,0.3417641,1.783795,-1.439176,-55.47622,-19.49086,1001.545
2.294979572,54.35194,121.4321,8.521295,0.02900339,0.6119601,2.227924,-1.439176,-55.47622,-19.49086,1001.545
2.297476768,30.0628,118.5137,10.7857,0.300467,0.8016069,2.500591,-1.439176,-55.47622,-19.49086,1001.545
2.299973965,-3.272804,116.7864,9.622898,0.670968,0.865725,2.41537,-0.691011,-56.17387,-18.20393,1001.545
2.302471638,-30.28827,118.5732,7.419691,0.9659308,0.8177409,2.02242,-0.691011,-56.17387,-18.20393,1001.545
2.304968834,-45.84076,124.827,4.482081,1.078619,0.6595274,1.559193,-0.691011,-56.17387,-18.20393,1001.545
2.307466030,-53.95779,136.441,-0.0467335,1.105424,0.4460188,1.165195,-0.691011,-56.17387,-18.20393,1001.545
2.309962749,-57.98533,153.8323,-5.00395,1.161233,0.1941153,0.7580787,-0.691011,-56.17387,-18.20393,1001.541
2.312459946,-50.79773,174.7972,-6.472754,1.164443,-0.1210166,0.3547882,-0.691011,-56.17387,-18.20393,1001.541
2.314957142,-29.04903,195.7025,-2.06634,0.9327684,-0.3771996,0.08926018,-0.691011,-56.17387,-18.20393,1001.541
2.317454815,-6.061098,215.7144,3.747679,0.4035063,-0.5838389,0.08435821,-0.691011,-56.17387,-18.20393,1001.541
2.319952011,6.145434,235.6073,10.6021,-0.308035,-0.8668871,0.1049471,-0.691011,-56.17387,-18.20393,1001.541
2.322449207,14.44835,250.9736,20.82254,-1.011853,-1.068376,0.04040281,-0.691011,-56.17387,-18.20393,1001.541
2.324946403,29.31926,261.0391,27.92176,-1.546611,-1.073397,0.08947451,-0.691011,-56.17387,-18.20393,1001.541
2.327444076,52.18327,269.8539,25.77975,-1.801138,-0.9856584,0.1611253,-0.691011,-56.17387,-18.20393,1001.541
2.329941273,82.66862,273.9039,19.41493,-1.729396,-0.831781,0.3682469,-0.691011,-56.17387,-18.20393,1001.541
2.332438469,109.4982,271.998,14.94732,-1.501534,-0.5102183,0.8797856,-0.691011,-56.17387,-18.20393,1001.541
2.334935665,114.2693,267.2928,10.9081,-1.406817,-0.08540679,1.483333,-0.691011,-56.17387,-18.20393,1001.541
2.337433338,92.02489,261.992,1.789272,-1.459418,0.2300706,1.847003,-0.691011,-56.17387,-18.20393,1001.541
2.339930534,53.73232,255.0236,-12.77637,-1.505615,0.3337716,1.941823,-0.691011,-56.17387,-18.20393,1001.541
2.342427254,15.1919,247.4596,-29.60643,-1.449275,0.2353975,1.829764,-0.691011,-56.17387,-18.20393,1001.541
2.344924450,-11.4518,240.0146,-45.94689,-1.333776,0.1005914,1.621918,-0.691011,-56.17387,-18.20393,1001.541
2.347421646,-21.61358,232.6293,-61.36934,-1.140197,0.08820333,1.546422,-0.691011,-56.17387,-18.20393,1001.541
2.349918842,-19.87864,224.1719,-72.56897,-1.008417,0.1923676,1.787777,0.4252911,-56.83204,-15.25946,1001.541
2.352416515,-19.44491,214.285,-74.28258,-1.508511,0.3341983,1.978125,0.4252911,-56.83204,-15.25946,1001.544
2.354915619,-28.49137,196.8342,-71.34497,-2.382958,0.5651532,2.137963,0.4252911,-56.83204,-15.25946,1001.544
2.357410908,-50.36399,170.8067,-67.91776,-2.747823,0.926656,2.27221,0.4252911,-56.83204,-15.25946,1001.544
2.359908104,-60.09204,147.9955,-51.3325,-3.027195,1.606294,1.845747,0.4252911,-56.83204,-15.25946,1001.544
2.362405777,-64.30546,120.896,-32.85004,-3.126471,2.228435,1.656987,0.4252911,-56.83204,-15.25946,1001.544
2.364902973,-94.66689,91.89066,-28.62723,-2.948575,2.532565,1.783205,0.4252911,-56.83204,-15.25946,1001.544
2.367400169,-140.8286,74.08242,-33.58445,-2.528777,2.367931,1.506132,0.4252911,-56.83204,-15.25946,1001.544
2.369897365,-206.6943,56.03596,-42.94808,-1.470979,1.450743,1.436584,0.4252911,-56.83204,-15.25946,1001.544
2.372394085,-264.8148,53.59403,-46.19169,-0.6569499,0.4590615,1.056274,0.4252911,-56.83204,-15.25946,1001.544
2.374891281,-277.2072,60.91982,-41.66287,-0.4697703,-0.3549412,0.3779568,0.4252911,-56.83204,-15.25946,1001.544
2.377388954,-237.4895,62.23013,-35.48165,-0.5746498,-1.148432,0.06698881,0.4252911,-56.83204,-15.25946,1001.544
2.379886150,-165.3037,56.09552,-29.97363,-0.737438,-1.57378,0.1451128,0.4252911,-56.83204,-15.25946,1001.544
2.382383346,-84.00941,46.98294,-27.09722,-0.865685,-1.50924,0.4915121,0.4252911,-56.83204,-15.25946,1001.544
2.384880543,-22.97675,36.85786,-22.99681,-0.9154159,-1.097821,1.016425,0.4252911,-56.83204,-15.25946,1001.544
2.387378216,-2.777107,25.83939,-17.42759,-0.9826834,-0.4744122,1.483471,0.4252911,-56.83204,-15.25946,1001.544
2.389875412,-20.31238,15.59519,-16.69319,-0.8749653,-0.0147877,1.62295,0.4252911,-56.83204,-15.25946,1001.544
2.392372608,-54.20564,7.852485,-17.73359,-0.6329303,0.2589538,1.409249,0.4252911,-56.83204,-15.25946,1001.544
2.394869804,-82.02662,5.350995,-17.48879,-0.4670643,0.3825395,1.019451,0.4252911,-56.83204,-15.25946,1001.544
2.397367477,-89.64796,6.661299,-16.57079,-0.4464472,0.4027881,0.5793651,0.4252911,-56.83204,-15.25946,1001.544
2.399864673,-74.09547,7.792925,-14.61238,-0.5200266,0.3777782,0.3541292,3.329214,-58.26128,-16.0689,1001.544
2.402361393,-48.62905,7.43557,-11.73597,-0.6069027,0.3524366,0.4498939,3.329214,-58.26128,-16.0689,1001.544
2.404858589,-29.60669,5.887028,-10.02237,-0.6638675,0.3313758,0.7075388,3.329214,-58.26128,-16.0689,1001.544
2.407355785,-25.08346,3.623775,-9.899966,-0.6704198,0.2779847,0.9715944,3.329214,-58.26128,-16.0689,1001.544
2.409853458,-32.58087,1.122284,-11.24637,-0.6148573,0.1583856,1.123357,3.329214,-58.26128,-16.0689,1001.544
2.412350654,-44.41563,-1.021851,-12.53157,-0.5464196,0.01842757,1.112852,3.329214,-58.26128,-16.0689,1001.544
2.414847851,-51.6652,-2.153477,-12.53157,-0.4822555,-0.1079943,0.9966882,3.329214,-58.26128,-16.0689,1001.544
2.417345047,-49.80633,-2.153477,-11.42997,-0.4642356,-0.1434019,0.8264042,3.329214,-58.26128,-16.0689,1001.544
2.419842720,-39.52063,-2.093918,-9.838765,-0.458492,-0.1171949,0.7082307,3.329214,-58.26128,-16.0689,1001.544
2.422339916,-26.57055,-1.855681,-7.513158,-0.4980708,-0.009793324,0.6707073,3.329214,-58.26128,-16.0689,1001.544
2.424837112,-13.2487,-1.319647,-5.983153,-0.5478044,0.1247705,0.7194535,3.329214,-58.26128,-16.0689,1001.544
2.427334308,-6.185022,-1.796121,-5.677152,-0.5558375,0.2001733,0.8512332,3.329214,-58.26128,-16.0689,1001.544
2.429831982,-7.486226,-2.451274,-5.493551,-0.5531741,0.2492042,0.954535,3.329214,-58.26128,-16.0689,1001.544
2.432328224,-14.24009,-2.927748,-5.738352,-0.5303102,0.2304538,1.003855,3.329214,-58.26128,-16.0689,1001.548
2.434825897,-21.61358,-3.761578,-6.166753,-0.4984054,0.1657636,0.9804145,3.329214,-58.26128,-16.0689,1001.548
2.437323093,-26.07485,-3.999816,-6.166753,-0.4763515,0.07492151,0.9055787,3.329214,-58.26128,-16.0689,1001.548
2.439820289,-25.76504,-4.178493,-5.309951,-0.4660791,0.01497413,0.8362615,3.329214,-58.26128,-16.0689,1001.548
2.442317486,-21.73751,-3.880697,-4.453148,-0.4663678,0.0007438622,0.789552,3.329214,-58.26128,-16.0689,1001.548
2.444815159,-16.34681,-3.404223,-3.229144,-0.4738891,0.01179324,0.7928212,3.329214,-58.26128,-16.0689,1001.548
2.447312355,-10.9561,-3.225545,-2.249941,-0.4882936,0.05406146,0.8178443,3.329214,-58.26128,-16.0689,1001.548
2.449809551,-7.486226,-3.285104,-1.699139,-0.4937216,0.08700611,0.8572586,4.038193,-56.80994,-18.2009,1001.548
2.452306747,-6.185022,-3.344663,-1.148337,-0.4980899,0.1144531,0.8833368,4.038193,-56.80994,-18.2009,1001.548
2.454804420,-6.370908,-4.178493,-0.8423361,-0.4961962,0.1191334,0.9033642,4.038193,-56.80994,-18.2009,1001.548
2.457301617,-8.415657,-4.774086,-0.7199357,-0.4774935,0.1118838,0.9120029,4.038193,-56.80994,-18.2009,1001.548
2.459798813,-10.33648,-4.774086,-0.5363351,-0.4755513,0.1117647,0.900061,4.038193,-56.80994,-18.2009,1001.548
2.462295532,-11.51376,-3.999816,-0.4751349,-0.4682969,0.08741496,0.8830346,4.038193,-56.80994,-18.2009,1001.548
2.464792728,-11.32788,-3.344663,-0.2303341,-0.4771298,0.06066141,0.8574368,4.038193,-56.80994,-18.2009,1001.548
2.467289924,-9.221164,-2.987308,0.0144667,-0.4818985,0.05365912,0.8498469,4.038193,-56.80994,-18.2009,1001.548
2.469787598,-7.672112,-2.510833,0.5040683,-0.4778286,0.0451109,0.8575482,4.038193,-56.80994,-18.2009,1001.548
2.472284794,-5.565401,-2.093918,1.05487,-0.4942385,0.06125792,0.8569649,4.038193,-56.80994,-18.2009,1001.548
2.474781990,-4.140273,-1.736562,1.238471,-0.4829852,0.06182168,0.8808375,4.038193,-56.80994,-18.2009,1001.548
2.477279186,-4.016349,-1.736562,1.911673,-0.4887569,0.08401691,0.8797272,4.038193,-56.80994,-18.2009,1001.548
2.479776859,-3.830463,-1.677003,2.095273,-0.4882748,0.08393721,0.8730401,4.038193,-56.80994,-18.2009,1001.548
2.482274055,-3.768501,-1.379206,2.217674,-0.4874464,0.09158766,0.8629542,4.038193,-56.80994,-18.2009,1001.548
2.484771252,-3.210842,-1.260088,2.401274,-0.4869246,0.08963764,0.8615348,4.038193,-56.80994,-18.2009,1001.548
2.487268448,-2.529259,-1.319647,2.952076,-0.4785715,0.08629026,0.8520005,4.038193,-56.80994,-18.2009,1001.548
2.489766121,-1.909638,-1.200529,3.258077,-0.4857852,0.106953,0.8475583,4.038193,-56.80994,-18.2009,1001.548
2.492262363,-1.166093,-1.08141,3.196877,-0.4794411,0.1070316,0.843255,4.038193,-56.80994,-18.2009,1001.548
2.494760036,-1.166093,-1.200529,3.380478,-0.4708758,0.1204718,0.8541404,4.038193,-56.80994,-18.2009,1001.548
2.497257233,-1.166093,-1.200529,3.258077,-0.4660508,0.1240126,0.8569782,4.038193,-56.80994,-18.2009,1001.548
2.499754429,-1.228055,-1.021851,3.135677,-0.456752,0.1232931,0.8607993,4.41204,-57.17091,-18.19524,1001.548
2.502251625,-1.413941,-0.9622913,3.074477,-0.4587626,0.1260856,0.8550485,4.41204,-57.17091,-18.19524,1001.548
2.504749298,-1.290017,-0.8431727,3.135677,-0.4587446,0.1257356,0.865082,4.41204,-57.17091,-18.19524,1001.548
2.507246494,-1.104131,-0.6049355,3.258077,-0.4636962,0.1283039,0.847393,4.41204,-57.17091,-18.19524,1001.548
2.509743690,-1.042168,-0.5453762,3.258077,-0.4641941,0.1287659,0.8464347,4.41204,-57.17091,-18.19524,1001.548
2.512240887,-0.9802063,-0.3071391,3.135677,-0.4657724,0.1350367,0.8459131,4.41204,-57.17091,-18.19524,1001.554
2.514738560,-0.6084338,-0.2475797,2.952076,-0.4629676,0.1418424,0.8420416,4.41204,-57.17091,-18.19524,1001.554
2.517235756,-0.1127371,-0.485817,2.952076,-0.4664426,0.1452239,0.8463185,4.41204,-57.17091,-18.19524,1001.554
2.519732952,0.1351113,-0.5453762,2.890876,-0.4614856,0.141511,0.8511187,4.41204,-57.17091,-18.19524,1001.554
2.522230148,-0.05077496,-0.6644948,2.829676,-0.4665782,0.1536479,0.8591555,4.41204,-57.17091,-18.19524,1001.554
2.524726868,-0.2986233,-0.9622913,2.217674,-0.4685133,0.1520341,0.8505701,4.41204,-57.17091,-18.19524,1001.554
2.527224541,-0.9802063,-0.902732,2.034073,-0.4658394,0.1395655,0.8578225,4.41204,-57.17091,-18.19524,1001.554
2.529721737,-1.290017,-0.8431727,2.095273,-0.4672033,0.1336653,0.8545217,4.41204,-57.17091,-18.19524,1001.554
2.532218933,-1.104131,-0.7836134,1.972873,-0.4692491,0.1383925,0.8482795,4.41204,-57.17091,-18.19524,1001.554
2.534716129,-0.5464717,-0.7240542,1.422071,-0.4749922,0.1314014,0.8430785,4.41204,-57.17091,-18.19524,1001.554
2.537213802,-0.6084338,-0.7836134,1.483271,-0.4610982,0.1202353,0.8570023,4.41204,-57.17091,-18.19524,1001.554
2.539710998,-1.104131,-0.6049355,1.483271,-0.4646931,0.1298226,0.8535924,4.41204,-57.17091,-18.19524,1001.554
2.542208195,-0.9182442,-0.3666984,1.360871,-0.4625832,0.1211357,0.8541308,4.41204,-57.17091,-18.19524,1001.554
2.544705391,-0.9802063,-0.3666984,1.605672,-0.4640136,0.1197707,0.863217,4.41204,-57.17091,-18.19524,1001.554
2.547203064,-0.9182442,-0.1880204,1.483271,-0.4678455,0.1152675,0.8594301,4.41204,-57.17091,-18.19524,1001.554
2.549700260,-0.7323579,-0.1284611,1.544472,-0.4652551,0.1070893,0.8609199,4.392906,-56.07275,-18.66097,1001.554
2.552196979,-0.6084338,-0.2475797,1.605672,-0.4608712,0.1076369,0.858525,4.392906,-56.07275,-18.66097,1001.552
2.554694176,-0.5464717,-0.00934254,1.605672,-0.461781,0.1036948,0.8556877,4.392906,-56.07275,-18.66097,1001.552
2.557191372,0.1970734,0.05021676,1.544472,-0.4569865,0.1086271,0.8537391,4.392906,-56.07275,-18.66097,1001.552
2.559688568,0.7547323,0.2288947,1.666872,-0.4586119,0.1178806,0.8584506,4.392906,-56.07275,-18.66097,1001.552
2.562186241,0.8166943,0.6458098,1.789272,-0.4610174,0.1159063,0.8598992,4.392906,-56.07275,-18.66097,1001.552
2.564683437,0.8786564,0.8244877,1.850473,-0.4673176,0.1134077,0.8646973,4.392906,-56.07275,-18.66097,1001.552
2.567180633,0.8166943,0.7649284,1.972873,-0.4672697,0.1110456,0.8694908,4.392906,-56.07275,-18.66097,1001.552
2.569677830,0.8166943,0.884047,1.850473,-0.4727257,0.1145934,0.853228,4.392906,-56.07275,-18.66097,1001.552
2.572175503,1.002581,0.884047,1.911673,-0.4672675,0.1098559,0.8532587,4.392906,-56.07275,-18.66097,1001.552
2.574672699,1.250429,1.062725,2.095273,-0.4668495,0.1137359,0.8522754,4.392906,-56.07275,-18.66097,1001.552
2.577169895,1.622201,1.420081,2.095273,-0.467902,0.1181148,0.8546331,4.392906,-56.07275,-18.66097,1001.552
2.579667091,2.117898,1.47964,2.095273,-0.4703965,0.1209612,0.853659,4.392906,-56.07275,-18.66097,1001.552
2.582164764,2.303784,1.300962,2.095273,-0.4689234,0.120501,0.8531837,4.392906,-56.07275,-18.66097,1001.552
2.584661007,2.241822,1.360521,2.340074,-0.4739619,0.1291442,0.8540803,4.392906,-56.07275,-18.66097,1001.552
2.587158680,2.17986,1.539199,2.401274,-0.4685687,0.1283536,0.8588595,4.392906,-56.07275,-18.66097,1001.552
2.589655876,1.932012,1.539199,2.340074,-0.4708911,0.1220824,0.8655928,4.392906,-56.07275,-18.66097,1001.552
2.592153072,1.808088,1.777436,2.340074,-0.4767863,0.1232769,0.8555568,4.392906,-56.07275,-18.66097,1001.558
2.594651222,1.87005,1.658318,2.156474,-0.4733391,0.1213255,0.849359,4.392906,-56.07275,-18.66097,1001.558
2.597147941,2.117898,1.47964,2.156474,-0.4655912,0.1254403,0.8541018,4.392906,-56.07275,-18.66097,1001.558
2.599645138,2.055936,1.598759,2.095273,-0.4735197,0.1315425,0.8511969,4.405387,-56.81902,-19.09459,1001.558
2.602142334,2.303784,1.777436,2.034073,-0.470548,0.1297674,0.8588505,4.405387,-56.81902,-19.09459,1001.558
2.604639530,1.87005,1.658318,1.850473,-0.4724912,0.1292594,0.8602883,4.405387,-56.81902,-19.09459,1001.558
2.607137203,1.188467,1.420081,1.850473,-0.4709207,0.1234867,0.8617615,4.405387,-56.81902,-19.09459,1001.558
2.609634399,1.002581,1.420081,1.666872,-0.4738855,0.1247507,0.8522009,4.405387,-56.81902,-19.09459,1001.558
2.612131596,1.064543,1.420081,1.666872,-0.4684651,0.1219094,0.8488744,4.405387,-56.81902,-19.09459,1001.558
2.614628315,1.374353,1.360521,1.728072,-0.4625611,0.1196218,0.8498426,4.405387,-56.81902,-19.09459,1001.558
2.617125511,1.622201,1.658318,1.666872,-0.465432,0.1161359,0.8479584,4.405387,-56.81902,-19.09459,1001.558
2.619622707,1.498277,1.420081,1.666872,-0.47045,0.1238536,0.8522053,4.405387,-56.81902,-19.09459,1001.558
2.622120380,1.498277,1.241403,1.605672,-0.4684402,0.1210483,0.8570008,4.405387,-56.81902,-19.09459,1001.558
2.624617577,1.374353,1.181844,1.666872,-0.4664843,0.121129,0.8598651,4.405387,-56.81902,-19.09459,1001.558
2.627114773,1.126505,1.300962,1.605672,-0.4674932,0.1224737,0.8531688,4.405387,-56.81902,-19.09459,1001.558
2.629611969,1.002581,1.420081,1.544472,-0.4694845,0.1237136,0.8402641,4.405387,-56.81902,-19.09459,1001.558
2.632112026,1.374353,1.241403,1.544472,-0.4660271,0.1219103,0.8450516,4.405387,-56.81902,-19.09459,1001.558
2.634606838,1.622201,1.360521,1.544472,-0.464211,0.1297429,0.8469054,4.405387,-56.81902,-19.09459,1001.558
2.637104034,1.808088,1.360521,1.299671,-0.4603418,0.1323436,0.8535718,4.405387,-56.81902,-19.09459,1001.558
2.639601231,1.436315,1.360521,1.11607,-0.456342,0.1270572,0.8512189,4.405387,-56.81902,-19.09459,1001.558
2.642098904,1.126505,1.47964,1.360871,-0.4635416,0.120157,0.8550936,4.405387,-56.81902,-19.09459,1001.558
2.644595623,0.8166943,1.181844,1.17727,-0.4576442,0.1177728,0.8488975,4.405387,-56.81902,-19.09459,1001.558
2.647092819,0.5688459,1.300962,1.299671,-0.4572661,0.1241308,0.8517179,4.405387,-56.81902,-19.09459,1001.558
2.649590015,1.002581,1.300962,1.238471,-0.4641157,0.1237905,0.8373945,4.044351,-57.18732,-18.64094,1001.558
2.652087212,1.374353,1.420081,1.11607,-0.4636593,0.126395,0.8497949,4.044351,-57.18732,-18.64094,1001.558
2.654584885,1.002581,1.062725,1.05487,-0.4596973,0.1248406,0.8722539,4.044351,-57.18732,-18.64094,1001.558
2.657082081,0.07314922,0.8244877,1.11607,-0.4598838,0.1343597,0.8583338,4.044351,-57.18732,-18.64094,1001.558
2.659579277,0.07314922,1.241403,0.9324697,-0.4783591,0.1284032,0.8421466,4.044351,-57.18732,-18.64094,1001.558
2.662076473,1.126505,1.658318,0.8712695,-0.4783477,0.1267347,0.8263956,4.044351,-57.18732,-18.64094,1001.558
2.664573669,1.622201,1.122284,0.6876689,-0.4627312,0.1293793,0.8535944,4.044351,-57.18732,-18.64094,1001.558
2.667071342,1.126505,1.122284,0.6264687,-0.4636082,0.1246922,0.8674806,4.044351,-57.18732,-18.64094,1001.558
2.669568539,0.5688459,1.420081,0.8100693,-0.4729966,0.1296118,0.8512104,4.044351,-57.18732,-18.64094,1001.558
2.672065735,0.5688459,1.360521,0.6264687,-0.4774359,0.1313167,0.8406923,4.044351,-57.18732,-18.64094,1001.558
2.674562931,0.4449218,1.062725,0.5040683,-0.4694349,0.1213773,0.8469681,4.044351,-57.18732,-18.64094,1001.56
2.677059650,0.6927701,1.062725,0.5040683,-0.4675653,0.1263174,0.8502754,4.044351,-57.18732,-18.64094,1001.56
2.679557323,0.8786564,1.241403,0.3204677,-0.4730614,0.1329509,0.8468876,4.044351,-57.18732,-18.64094,1001.56
2.682054520,0.7547323,1.300962,0.1368671,-0.4739828,0.1300632,0.8502524,4.044351,-57.18732,-18.64094,1001.56
2.684551716,0.7547323,1.420081,0.1980673,-0.4769604,0.1329764,0.85501,4.044351,-57.18732,-18.64094,1001.56
2.687048912,0.5068839,1.003166,-0.0467335,-0.4745506,0.1344011,0.8487888,4.044351,-57.18732,-18.64094,1001.56
2.689546585,0.3209976,0.884047,-0.2303341,-0.476068,0.1372749,0.8482915,4.044351,-57.18732,-18.64094,1001.56
2.692043781,0.1970734,0.8244877,-0.3527345,-0.4746161,0.1383414,0.8530597,4.044351,-57.18732,-18.64094,1001.56
2.694544315,0.07314922,0.7053691,-0.4139347,-0.4770073,0.1353513,0.8511719,4.044351,-57.18732,-18.64094,1001.56
2.697038174,-0.05077496,0.3480133,-0.7199357,-0.4730031,0.1301293,0.8535951,4.044351,-57.18732,-18.64094,1001.56
2.699535847,-0.4845096,0.5266911,-0.8423361,-0.4697218,0.1373857,0.8463764,4.044351,-57.18732,-18.64094,1001.56
2.702033043,-0.7323579,0.4075725,-0.9647365,-0.4691342,0.1315017,0.8411638,4.044351,-57.18732,-18.64094,1001.56
2.704530239,-0.6084338,-0.00934254,-1.148337,-0.4609011,0.135582,0.8425627,4.044351,-57.18732,-18.64094,1001.56
2.707026958,-0.1746991,-0.3071391,-1.270738,-0.4594869,0.1385446,0.8439738,4.044351,-57.18732,-18.64094,1001.56
2.709524155,-0.1127371,-0.4262576,-1.515538,-0.4570481,0.1397803,0.8597265,4.044351,-57.18732,-18.64094,1001.56
2.712021351,-0.3605854,-0.4262576,-1.821539,-0.4531741,0.1418378,0.8620978,4.044351,-57.18732,-18.64094,1001.56
2.714519024,-0.4225475,-0.3666984,-1.94394,-0.4546413,0.141774,0.8597108,4.044351,-57.18732,-18.64094,1001.558
2.717016220,-0.7323579,-0.2475797,-2.188741,-0.4633353,0.1362467,0.8597554,4.044351,-57.18732,-18.64094,1001.558
2.719513416,-0.9182442,-0.4262576,-2.555942,-0.4598448,0.1318688,0.8535749,4.044351,-57.18732,-18.64094,1001.558
2.722010612,-0.79432,-0.3666984,-2.861943,-0.4569761,0.1353225,0.8530709,4.044351,-57.18732,-18.64094,1001.558
2.724508285,-0.4845096,-0.4262576,-2.923143,-0.457892,0.1319044,0.8530958,4.044351,-57.18732,-18.64094,1001.558
2.727005482,-0.1746991,-0.06890184,-3.106744,-0.4632153,0.1288191,0.848822,4.044351,-57.18732,-18.64094,1001.558
2.729502678,-0.1746991,-0.00934254,-3.473945,-0.4652019,0.1307376,0.8502425,4.044351,-57.18732,-18.64094,1001.558
2.731999874,-0.2986233,-0.2475797,-3.473945,-0.4670922,0.1273307,0.8526562,4.044351,-57.18732,-18.64094,1001.558
2.734497547,-0.3605854,-0.1284611,-3.779946,-0.4704509,0.1238407,0.8512501,4.044351,-57.18732,-18.64094,1001.558
2.736993790,-0.2366612,0.05021676,-3.841146,-0.4654558,0.117624,0.8503362,4.044351,-57.18732,-18.64094,1001.558
2.739491463,-0.3605854,-0.00934254,-3.596345,-0.4743643,0.1242678,0.85316,4.044351,-57.18732,-18.64094,1001.558
2.741988659,-0.2366612,-0.00934254,-3.657546,-0.468933,0.1209734,0.852225,4.044351,-57.18732,-18.64094,1001.558
2.744485855,-0.1746991,-0.1880204,-3.596345,-0.467476,0.1208889,0.8436268,4.044351,-57.18732,-18.64094,1001.558
2.746983051,-0.1746991,0.2288947,-3.779946,-0.4660966,0.1257927,0.845024,4.044351,-57.18732,-18.64094,1001.558
2.749480724,0.01118713,0.1097761,-3.963547,-0.4667059,0.133197,0.8550024,4.031705,-56.44955,-18.65378,1001.558
2.751977920,0.07314922,-0.00934254,-4.024746,-0.4748969,0.1266709,0.8521878,4.031705,-56.44955,-18.65378,1001.558
2.754475117,-0.1127371,-0.00934254,-3.902346,-0.4669927,0.1220504,0.8569928,4.031705,-56.44955,-18.65378,1001.56
2.756972313,-0.4845096,0.1693354,-3.657546,-0.4705288,0.1288226,0.8607679,4.031705,-56.44955,-18.65378,1001.56
2.759469986,-0.3605854,0.4075725,-4.085947,-0.4670009,0.1225422,0.8574669,4.031705,-56.44955,-18.65378,1001.56
2.761967182,-0.5464717,0.5266911,-4.085947,-0.47324,0.1160387,0.8532181,4.031705,-56.44955,-18.65378,1001.56
2.764464378,-0.4225475,0.4671319,-3.718746,-0.4751717,0.1144764,0.8484537,4.031705,-56.44955,-18.65378,1001.56
2.766961098,0.07314922,0.4671319,-3.535145,-0.4781801,0.1187746,0.8479471,4.031705,-56.44955,-18.65378,1001.56
2.769458294,0.3829597,0.5266911,-3.657546,-0.4797401,0.1240878,0.8483878,4.031705,-56.44955,-18.65378,1001.56
2.771955967,0.3829597,0.7053691,-3.535145,-0.4734166,0.1263137,0.8593545,4.031705,-56.44955,-18.65378,1001.56
2.774453163,0.4449218,0.6458098,-3.412745,-0.4767919,0.1238073,0.8588967,4.031705,-56.44955,-18.65378,1001.56
2.776950359,0.1970734,0.7053691,-3.290344,-0.4826551,0.1236297,0.8550801,4.031705,-56.44955,-18.65378,1001.56
2.779447555,0.1351113,0.4671319,-3.412745,-0.47973,0.124236,0.859373,4.031705,-56.44955,-18.65378,1001.56
2.781944752,0.07314922,0.884047,-3.290344,-0.4767776,0.1227916,0.8555603,4.031705,-56.44955,-18.65378,1001.56
2.784442425,0.01118713,1.003166,-2.984343,-0.474314,0.1213302,0.8512703,4.031705,-56.44955,-18.65378,1001.56
2.786939621,-0.1127371,0.8244877,-2.739542,-0.480646,0.1202038,0.849849,4.031705,-56.44955,-18.65378,1001.56
2.789436817,0.2590355,1.062725,-2.861943,-0.4860214,0.1200302,0.8455544,4.031705,-56.44955,-18.65378,1001.56
2.791934013,0.4449218,0.8244877,-3.045543,-0.4781254,0.1159015,0.8508336,4.031705,-56.44955,-18.65378,1001.56
2.794431686,0.6308081,0.8244877,-2.923143,-0.4753335,0.1237422,0.8517314,4.031705,-56.44955,-18.65378,1001.56
2.796928883,0.6308081,1.003166,-2.800743,-0.4796273,0.1190008,0.8670529,4.031705,-56.44955,-18.65378,1001.56
2.799425602,0.2590355,1.122284,-2.372341,-0.4736522,0.1122425,0.8604104,4.405552,-56.81052,-18.64812,1001.56
