Time (s),Gyroscope X (deg/s),Gyroscope Y (deg/s),Gyroscope Z (deg/s),Accelerometer X (g),Accelerometer Y (g),Accelerometer Z (g),Magnetometer X (uT),Magnetometer Y (uT),Magnetometer Z (uT),Barometer (hPa)
0.000000000,0.01688166,-0.06346371,0.05945278,-0.4814832,0.1124245,0.8503827,25.94837,-44.8856,-27.50612,1001.625
0.002497196,0.01687635,-0.003884472,-0.06296629,-0.4854589,0.1156151,0.8412867,25.94837,-44.8856,-27.50612,1001.625
0.004994392,-0.1690152,0.05567605,-0.06294651,-0.4809624,0.1104615,0.8480081,25.94837,-44.8856,-27.50612,1001.625
0.007491588,0.01692415,-0.1230193,-0.1241269,-0.481031,0.1143568,0.8489357,25.94837,-44.8856,-27.50612,1001.625
0.009989261,0.2028051,-0.3016586,-0.001687542,-0.4814667,0.111441,0.8494344,25.94837,-44.8856,-27.50612,1001.625
0.012486458,0.07881721,0.05579197,-0.06288721,-0.4830532,0.1182036,0.849387,25.94837,-44.8856,-27.50612,1001.625
0.014983654,-0.04513173,0.1748931,-0.1240677,-0.4785874,0.1138274,0.841773,25.94837,-44.8856,-27.50612,1001.625
0.017480850,-0.04511755,0.1152788,-0.1240287,-0.4775799,0.1124634,0.8470365,25.94837,-44.8856,-27.50612,1001.625
0.019978523,-0.2309897,-0.003876016,-0.1239897,-0.4809459,0.1094781,0.8470598,25.94837,-44.8856,-27.50612,1001.625
0.022475719,-0.1069929,-0.003874801,-0.06275056,-0.4804823,0.1109638,0.8484819,25.94837,-44.8856,-27.50612,1001.625
0.024972915,-0.1689214,-0.06343289,-0.2463315,-0.4828028,0.1041107,0.8480545,25.94837,-44.8856,-27.50612,1001.625
0.027470112,0.01701796,-0.003853656,-0.1850539,-0.4838239,0.1058891,0.8375338,25.94837,-44.8856,-27.50612,1001.625
0.029967785,0.01701261,-0.003852449,-0.06259532,-0.4873461,0.1122533,0.8470438,25.94837,-44.8856,-27.50612,1001.625
0.032464981,-0.04495482,0.1152674,-0.001375459,-0.4819824,0.112867,0.8479915,25.94837,-44.8856,-27.50612,1001.625
0.034961700,-0.1069028,-0.06344675,-0.1849756,-0.4790071,0.1099216,0.8408458,25.94837,-44.8856,-27.50612,1001.625
0.037458896,-0.04490711,-0.2421047,-0.1849175,-0.4785186,0.1105463,0.8503944,25.94837,-44.8856,-27.50612,1001.625
0.039956093,0.01706909,-0.1824694,-0.1236592,-0.4789909,0.1095459,0.8489687,25.94837,-44.8856,-27.50612,1001.626
0.042453289,-0.2307846,-0.182412,-0.1236204,-0.47952,0.1120005,0.8518175,25.94837,-44.8856,-27.50612,1001.626
0.044950962,-0.04482586,-0.1227954,-0.1847817,-0.4824416,0.1114457,0.8513456,25.94837,-44.8856,-27.50612,1001.626
0.047448158,-0.168736,-0.1823162,-0.06232329,-0.48,0.1114983,0.8513438,25.95453,-45.26299,-27.94617,1001.626
0.049945354,-0.1686829,-0.003580973,-0.1847041,-0.4834269,0.11191,0.8513429,25.95453,-45.26299,-27.94617,1001.626
0.052442550,-0.1066679,0.05597945,-0.1846461,-0.4858195,0.1089006,0.848022,25.95453,-45.26299,-27.94617,1001.626
0.054940223,0.07925192,-0.003597431,-0.06218768,-0.482456,0.1118473,0.8451331,25.95453,-45.26299,-27.94617,1001.626
0.057437420,-0.04469716,-0.1227149,-0.0009679343,-0.4794819,0.1094967,0.8461034,25.95453,-45.26299,-27.94617,1001.626
0.059934616,-0.1686073,-0.06311705,-0.06216783,-0.4794627,0.1085519,0.8480209,25.95453,-45.26299,-27.94617,1001.626
0.062431812,-0.1065922,-0.3013344,0.0602521,-0.4760844,0.1111034,0.851822,25.95453,-45.26299,-27.94617,1001.626
0.064929485,-0.1065587,-0.1821212,0.06023317,-0.477194,0.1183232,0.8489051,25.95453,-45.26299,-27.94617,1001.626
0.067426681,-0.2304495,0.1752919,-0.1845866,-0.483029,0.116722,0.847487,25.95453,-45.26299,-27.94617,1001.626
0.069923877,-0.168415,0.1156775,-0.2457288,-0.4781,0.113825,0.8408175,25.95453,-45.26299,-27.94617,1001.626
0.072421074,-0.2922862,-0.1225961,-0.1232512,-0.4820276,0.1152677,0.8460637,25.95453,-45.26299,-27.94617,1001.626
0.074918747,-0.1682702,-0.06299824,-0.1232124,-0.4781405,0.1169043,0.8532147,25.95453,-45.26299,-27.94617,1001.626
0.077415943,0.0176689,0.05614015,-0.3067743,-0.4824672,0.1129081,0.8518128,25.95453,-45.26299,-27.94617,1001.626
0.079913139,0.07962544,-0.06299609,-0.1842776,-0.48243,0.1103914,0.8451435,25.95453,-45.26299,-27.94617,1001.626
0.082410335,-0.1062858,0.0561423,0.06058113,-0.4819029,0.1085187,0.8494555,25.95453,-45.26299,-27.94617,1001.626
0.084908008,-0.1062524,0.115684,-0.1230385,-0.4785391,0.1114718,0.8470441,25.95453,-45.26299,-27.94617,1001.626
0.087405205,-0.1681812,0.1752069,-0.1229998,-0.477096,0.1124095,0.8422599,25.95453,-45.26299,-27.94617,1001.626
0.089902401,-0.2300904,0.05603328,-0.1841614,-0.4775547,0.1109946,0.8460916,25.95453,-45.26299,-27.94617,1001.626
0.092399597,-0.2300181,-0.1226622,-0.1841035,-0.4805652,0.1158748,0.8527459,25.95453,-45.26299,-27.94617,1001.626
0.094897270,-0.291908,-0.1226237,-0.2452459,-0.4829973,0.1147357,0.8441575,25.95453,-45.26299,-27.94617,1001.626
0.097394466,-0.3537783,0.05609273,-0.3063691,-0.4824647,0.1123326,0.8451297,26.69606,-45.60753,-27.49481,1001.626
0.099891662,-0.3536672,-0.06304349,-0.1838724,-0.479984,0.1105083,0.8499179,26.69606,-45.60753,-27.49481,1001.626
0.102388859,-0.2296319,-0.003464386,-0.1838147,-0.4780612,0.1119418,0.8451298,26.69606,-45.60753,-27.49481,1001.626
0.104886532,-0.3534839,0.056096,-0.1225567,-0.4780355,0.1110936,0.8542115,26.69606,-45.60753,-27.49481,1001.626
0.107383728,-0.415335,0.1156377,-0.1225182,-0.4790561,0.1128785,0.8441684,26.69606,-45.60753,-27.49481,1001.626
0.109880924,-0.2912803,0.1156014,-0.1224797,-0.4839314,0.1122753,0.8432202,26.69606,-45.60753,-27.49481,1001.626
0.112378120,-0.2292267,0.2346836,-0.1224412,-0.4785783,0.1133485,0.8422541,26.69606,-45.60753,-27.49481,1001.626
0.114875793,-0.415041,0.05593201,-0.2448032,-0.4819773,0.1123302,0.844174,26.69606,-45.60753,-27.49481,1001.626
0.117372989,-0.1670622,-0.003644861,-0.1223259,-0.4804654,0.1099868,0.8480112,26.69606,-45.60753,-27.49481,1001.626
0.119870186,-0.1670097,0.2941528,-0.06108723,-0.478951,0.1070678,0.8451652,26.69606,-45.60753,-27.49481,1001.626
0.122367382,-0.3528436,0.1749418,-0.1222682,-0.4790035,0.1099732,0.8446668,26.69606,-45.60753,-27.49481,1001.626
0.124865055,-0.1668464,0.05576821,-0.1222298,-0.4858738,0.1117802,0.8456132,26.69606,-45.60753,-27.49481,1001.626
0.127362251,-0.166794,0.11531,0.000208974,-0.4838597,0.1084251,0.845636,26.69606,-45.60753,-27.49481,1001.626
0.129859447,-0.1047795,0.05571447,0.0002089083,-0.4805032,0.1118828,0.8446541,26.69606,-45.60753,-27.49481,1001.626
0.132356167,-0.1047466,0.1748156,-0.1221916,-0.4780539,0.1114372,0.8437004,26.69606,-45.60753,-27.49481,1001.626
0.134853363,-0.1047137,-0.003917255,-0.2445536,-0.4839196,0.1118351,0.846567,26.69606,-45.60753,-27.49481,1001.626
0.137350559,-0.1666429,-0.1825939,0.000324059,-0.481041,0.1148228,0.8474994,26.69606,-45.60753,-27.49481,1001.626
0.139848232,-0.1665905,0.05570064,0.1227244,-0.4824659,0.1129274,0.8532457,26.69606,-45.60753,-27.49481,1001.626
0.142345428,-0.1045761,0.234361,-0.1833152,-0.4800132,0.1119191,0.8465642,26.69606,-45.60753,-27.49481,1001.626
0.144842624,-0.2284674,-0.06350909,-0.1220574,-0.4824226,0.1098867,0.8437141,26.69606,-45.60753,-27.49481,1001.626
0.147339821,-0.2283957,-0.1826077,-0.06081887,-0.4809751,0.1108889,0.8437061,26.31573,-44.88618,-27.95335,1001.626
0.149837494,-0.2283239,0.05568683,-0.06079976,-0.4809619,0.110468,0.8484857,26.31573,-44.88618,-27.95335,1001.626
0.152334690,-0.2282522,-0.003889963,-0.1219809,-0.4859145,0.1142453,0.8484616,26.31573,-44.88618,-27.95335,1001.626
0.154831886,-0.2901426,0.05567056,0.06165807,-0.4810162,0.1133476,0.8460768,26.31573,-44.88618,-27.95335,1001.626
0.157329082,-0.04220306,-0.003906228,-0.06076171,-0.4789419,0.106589,0.8456462,26.31573,-44.88618,-27.95335,1001.626
0.159826755,-0.166114,0.1747729,-0.1219428,-0.4785351,0.1115298,0.8513427,26.31573,-44.88618,-27.95335,1001.626
0.162323952,-0.04213762,-0.003959902,-0.1219045,-0.4775616,0.1115057,0.8479986,26.31573,-44.88618,-27.95335,1001.631
0.164821148,-0.04212438,-0.003958657,-0.06066601,-0.4790882,0.1148584,0.8470203,26.31573,-44.88618,-27.95335,1001.631
0.167318344,-0.1040732,-0.1826353,0.06175345,-0.4814985,0.1128131,0.843215,26.31573,-44.88618,-27.95335,1001.631
0.169816017,-0.1660026,-0.06345934,-0.06066635,-0.4789944,0.1094943,0.8451478,26.31573,-44.88618,-27.95335,1001.631
0.172313213,-0.1039884,0.1152385,-0.2442479,-0.4785522,0.1118926,0.8422645,26.31573,-44.88618,-27.95335,1001.631
0.174810409,-0.1659178,0.1152023,0.0006296422,-0.4824282,0.1104171,0.8470539,26.31573,-44.88618,-27.95335,1001.631
0.177307606,-0.0419415,0.1747254,-0.06057076,-0.4853625,0.1102897,0.8422799,26.31573,-44.88618,-27.95335,1001.631
0.179805279,-0.1038904,0.1746705,-0.06055173,-0.4779878,0.1081174,0.849456,26.31573,-44.88618,-27.95335,1001.631
0.182302475,-0.227782,0.05549704,0.0618677,-0.480491,0.1114491,0.8484784,26.31573,-44.88618,-27.95335,1001.631
0.184799671,-0.04182412,0.05547961,-0.1217523,-0.4775286,0.1095387,0.8461019,26.31573,-44.88618,-27.95335,1001.631
0.187296867,-0.1657352,-0.004097119,-0.0605139,-0.480027,0.1129413,0.8503782,26.31573,-44.88618,-27.95335,1001.631
0.189794540,-0.103721,-0.06365513,0.0007053205,-0.484383,0.1109635,0.8546938,26.31573,-44.88618,-27.95335,1001.631
0.192291736,-0.1036884,0.1746021,-0.0604951,-0.4833401,0.107057,0.8513774,26.31573,-44.88618,-27.95335,1001.631
0.194788933,-0.2895421,0.2936658,-0.1216763,-0.4785282,0.1110187,0.8494356,26.31573,-44.88618,-27.95335,1001.631
0.197286129,-0.2274891,0.05533636,-0.3664389,-0.4755727,0.1096194,0.8489662,26.68325,-44.87826,-27.95411,1001.631
0.199783802,-0.1034934,0.1148783,-0.121523,-0.4799949,0.1109614,0.8475263,26.68325,-44.87826,-27.95411,1001.631
0.202280998,-0.04149882,0.2339608,0.0009156275,-0.4775224,0.1096289,0.8527886,26.68325,-44.87826,-27.95411,1001.629
0.204778194,-0.16541,0.174328,-0.06028486,-0.4838727,0.1094602,0.8504053,26.68325,-44.87826,-27.95411,1001.629
0.207275390,0.02052828,0.1742732,0.0009342788,-0.48239,0.1085275,0.8508887,26.68325,-44.87826,-27.95411,1001.629
0.209773063,-0.1034023,0.2337778,0.0009339853,-0.4755952,0.1111268,0.8527768,26.68325,-44.87826,-27.95411,1001.629
0.212270260,-0.2892561,-0.004532874,-0.1826669,-0.4795395,0.1129389,0.8494225,26.68325,-44.87826,-27.95411,1001.629
0.214767456,-0.0413169,-0.1832094,0.0009910783,-0.4809533,0.1099827,0.8484892,26.68325,-44.87826,-27.95411,1001.629
0.217264652,0.08262026,0.05508541,0.000990767,-0.4804901,0.111462,0.8494337,26.68325,-44.87826,-27.95411,1001.629
0.219762325,0.02063221,0.0550681,-0.06020975,-0.4780116,0.1096055,0.8518338,26.68325,-44.87826,-27.95411,1001.629
0.222259521,-0.1652606,0.1146101,-0.121391,-0.4780619,0.1125431,0.8537235,26.68325,-44.87826,-27.95411,1001.629
0.224756718,-0.1652086,0.293252,-0.06015269,-0.4785195,0.1105334,0.8494391,26.68325,-44.87826,-27.95411,1001.629
0.227254867,-0.2890809,0.2336006,-0.1825342,-0.4849437,0.1141826,0.8422519,26.68325,-44.87826,-27.95411,1001.629
0.229751587,-0.1031038,0.1144086,-0.1824769,-0.4794042,0.1051226,0.8456569,26.68325,-44.87826,-27.95411,1001.629
0.232247829,-0.04110935,0.05481333,-0.1212193,-0.4779558,0.1061376,0.8466042,26.68325,-44.87826,-27.95411,1001.629
0.234745502,0.02086566,0.233474,-0.05998104,-0.4819637,0.1119158,0.8494313,26.68325,-44.87826,-27.95411,1001.629
0.237242698,-0.1030651,0.1738414,-0.1211624,-0.4814681,0.1114216,0.8480015,26.68325,-44.87826,-27.95411,1001.629
0.239745140,-0.04107061,0.05466815,-0.05992414,-0.484872,0.1103324,0.8446677,26.68325,-44.87826,-27.95411,1001.629
0.242237091,-0.04105771,0.05465098,-0.1211055,-0.4823719,0.1069556,0.842302,26.68325,-44.87826,-27.95411,1001.627
0.244734764,-0.2269311,0.1737524,-0.1210675,-0.478037,0.1104601,0.8432297,26.68325,-44.87826,-27.95411,1001.627
0.247231960,-0.1029356,0.1141385,0.001370973,-0.4799315,0.107603,0.8504162,25.96069,-45.64037,-28.38621,1001.627
0.249729156,-0.1029033,0.05454337,-0.05982966,-0.4848571,0.1099373,0.8513578,25.96069,-45.64037,-28.38621,1001.627
0.252232075,0.02105324,0.1140855,0.1237897,-0.4824387,0.1108767,0.84514,25.96069,-45.64037,-28.38621,1001.627
0.254724026,-0.1028775,0.2331683,-0.12105,-0.4838615,0.1083993,0.8437255,25.96069,-45.64037,-28.38621,1001.627
0.257221222,0.08304103,0.233095,-0.05981173,-0.4868239,0.1103097,0.8461019,25.96069,-45.64037,-28.38621,1001.627
0.259718418,0.08301495,0.1734625,0.06260747,-0.4824647,0.1123326,0.8451297,25.96069,-45.64037,-28.38621,1001.627
0.262215614,0.08298887,0.1138487,0.0625878,-0.4805188,0.1128792,0.8465576,25.96069,-45.64037,-28.38621,1001.627
0.264713287,0.02100071,0.2329315,-0.05983227,-0.481982,0.1128735,0.8484691,25.96069,-45.64037,-28.38621,1001.627
0.267210483,0.02099411,0.1732991,-0.05981347,-0.4838991,0.1109096,0.8499173,25.96069,-45.64037,-28.38621,1001.627
0.269707680,0.02098752,0.1732446,0.1238059,-0.4848853,0.111361,0.8489593,25.96069,-45.64037,-28.38621,1001.627
0.272204876,0.08294301,0.1136309,0.06256683,-0.4809906,0.1118852,0.8456096,25.96069,-45.64037,-28.38621,1001.627
0.274702549,-0.04100722,-0.005523406,0.001346974,-0.4809693,0.1109726,0.8499151,25.96069,-45.64037,-28.38621,1001.627
0.277199745,-0.04099434,0.05403763,-0.1210539,-0.4824235,0.1098739,0.8427588,25.96069,-45.64037,-28.38621,1001.627
0.279696941,0.02098063,0.1731392,-0.05981562,-0.4809482,0.1094459,0.8446717,25.96069,-45.64037,-28.38621,1001.627
0.282194137,0.02097404,0.2326442,0.001403373,-0.4770308,0.1090768,0.8470603,25.96069,-45.64037,-28.38621,1001.627
0.284691810,0.02096745,0.1730118,-0.05979727,-0.4809512,0.1094007,0.8413284,25.96069,-45.64037,-28.38621,1001.627
0.287189007,-0.04100122,0.1133981,-0.3045793,-0.4818756,0.1070821,0.8508987,25.96069,-45.64037,-28.38621,1001.627
0.289686203,-0.04098834,-0.005756117,-0.1820832,-0.4815232,0.1142883,0.8446375,25.96069,-45.64037,-28.38621,1001.627
0.292183399,-0.1648996,0.1133643,-0.1208258,-0.479513,0.1114894,0.8499106,25.96069,-45.64037,-28.38621,1001.627
0.294681072,-0.2268099,0.1133287,-0.1207878,-0.4799711,0.1094733,0.8451486,25.96069,-45.64037,-28.38621,1001.627
0.297178268,-0.2267387,-0.1249441,-0.1207499,-0.4829517,0.1123414,0.8465629,26.32222,-45.24657,-27.50046,1001.627
0.299675464,-0.2266674,-0.005786277,-0.05951175,-0.4809771,0.1114708,0.8508669,26.32222,-45.24657,-27.50046,1001.627
0.302172661,-0.04070996,0.2324528,-0.05949306,-0.4790296,0.1114291,0.8446564,26.32222,-45.24657,-27.50046,1001.627
0.304670334,0.1451891,0.1728204,-0.1206746,-0.4755819,0.1100982,0.8484852,26.32222,-45.24657,-27.50046,1001.627
0.307167530,-0.164667,0.05364752,0.1241641,-0.4766496,0.1154799,0.853224,26.32222,-45.24657,-27.50046,1001.627
0.309664726,-0.1026531,0.2918679,-0.05947547,-0.4795665,0.1143819,0.8484569,26.32222,-45.24657,-27.50046,1001.627
0.312161922,0.02130329,0.1726576,-0.1818572,-0.4785238,0.1110831,0.8542119,26.32222,-45.24657,-27.50046,1001.627
0.314659595,-0.1026276,0.113044,-0.2430003,-0.4770971,0.1130043,0.850376,26.32222,-45.24657,-27.50046,1001.627
0.317156792,-0.1025953,0.2916864,-0.1817237,-0.478579,0.1139498,0.8508478,26.32222,-45.24657,-27.50046,1001.627
0.319653988,-0.1645252,0.3511541,-0.05926622,-0.4770308,0.1090768,0.8470603,26.32222,-45.24657,-27.50046,1001.627
0.322151184,-0.2264356,0.1723659,0.001952604,-0.4795431,0.1128873,0.8456016,26.32222,-45.24657,-27.50046,1001.631
0.324648857,-0.0404782,0.1723117,-0.1816486,-0.4824356,0.1109218,0.8484833,26.32222,-45.24657,-27.50046,1001.631
0.327146053,-0.1024276,0.2318169,-0.05919115,-0.4790325,0.1119981,0.850862,26.32222,-45.24657,-27.50046,1001.631
0.329642773,-0.1643575,0.2913033,0.06322785,-0.4785282,0.1110187,0.8494356,26.32222,-45.24657,-27.50046,1001.631
0.332139969,-0.04038167,0.3507711,-0.1203926,-0.479481,0.1095096,0.8470587,26.32222,-45.24657,-27.50046,1001.631
0.334637165,0.1455173,0.2315423,-0.1203548,-0.4799185,0.106568,0.8456469,26.32222,-45.24657,-27.50046,1001.631
0.337134361,0.08350948,0.2910289,-0.05911678,-0.4780686,0.1124464,0.8465592,26.32222,-45.24657,-27.50046,1001.631
0.339632034,-0.04044093,0.2909375,0.002101994,-0.478996,0.1100827,0.8527862,26.32222,-45.24657,-27.50046,1001.631
0.342129230,-0.1023903,0.3504054,0.06330153,-0.4844037,0.1112749,0.8417947,26.32222,-45.24657,-27.50046,1001.631
0.344626427,-0.04039606,0.4098546,0.06328165,-0.4825128,0.1153023,0.8494074,26.32222,-45.24657,-27.50046,1001.631
0.347123623,0.02157871,0.3501665,0.124462,-0.4800127,0.1119256,0.8470418,26.68356,-44.86248,-27.12496,1001.631
0.349621296,0.08353402,0.2904972,0.002022466,-0.4770541,0.1105714,0.8499157,26.68356,-44.86248,-27.12496,1001.631
0.352121830,0.1454699,0.4690838,-0.1203786,-0.4828749,0.1079544,0.8451611,26.68356,-44.86248,-27.12496,1001.631
0.354615688,-0.0404621,0.4689365,-0.05914056,-0.4829105,0.1098827,0.844192,26.68356,-44.86248,-27.12496,1001.631
0.357112884,0.0215127,0.230552,0.06327843,-0.4784966,0.1090324,0.8461061,26.68356,-44.86248,-27.12496,1001.631
0.359610557,0.02150594,0.2900388,0.06325855,-0.4819156,0.108946,0.8451535,26.68356,-44.86248,-27.12496,1001.631
0.362107754,0.02149919,0.2303884,0.002038475,-0.4790673,0.1139393,0.8508481,26.68356,-44.86248,-27.12496,1001.631
0.364609718,0.02149243,0.2898753,-0.05916237,-0.4844244,0.1128081,0.8475157,26.68356,-44.86248,-27.12496,1001.631
0.367102146,0.02148568,0.2897843,-0.120344,-0.4853746,0.1113376,0.8480044,26.68356,-44.86248,-27.12496,1001.631
0.369599819,-0.04048316,0.2896932,0.002094228,-0.4833801,0.1089209,0.8456321,26.68356,-44.86248,-27.12496,1001.631
0.372097015,-0.1643946,0.2300429,0.124494,-0.4809782,0.1108437,0.8403627,26.68356,-44.86248,-27.12496,1001.631
0.374594211,0.02154329,0.1704113,0.002054459,-0.4805137,0.1123424,0.8427401,26.68356,-44.86248,-27.12496,1001.631
0.377091408,-0.04042556,0.1107985,-0.05914639,-0.4809508,0.1094072,0.841806,26.68356,-44.86248,-27.12496,1001.631
0.379589081,0.02154923,0.2298823,-0.05912781,-0.4779891,0.1080981,0.8480232,26.68356,-44.86248,-27.12496,1001.631
0.382086277,0.02154246,0.05113219,0.002090971,-0.4824734,0.1128179,0.8451262,26.68356,-44.86248,-27.12496,1001.631
0.384583473,-0.2263127,0.1702347,0.002090314,-0.4824781,0.1133612,0.8494213,26.68356,-44.86248,-27.12496,1001.631
0.387080669,-0.1023174,0.3488591,0.06328986,-0.4808751,0.105615,0.8485203,26.68356,-44.86248,-27.12496,1001.631
0.389578342,0.02163894,0.2891902,0.1244702,-0.4755498,0.1081184,0.8456333,26.68356,-44.86248,-27.12496,1001.631
0.392075538,0.08359423,0.2295401,0.06323087,-0.4775673,0.1114219,0.8417896,26.68356,-44.86248,-27.12496,1001.631
0.394572735,0.02160588,0.229468,0.06321101,-0.4829938,0.1147872,0.8479784,26.68356,-44.86248,-27.12496,1001.631
0.397069931,0.02159909,0.5867517,0.001990948,-0.4799923,0.1110001,0.850392,26.68958,-45.24714,-27.94769,1001.631
0.399567604,0.08355439,0.2887709,0.001990322,-0.4803859,0.1056384,0.8494751,26.68958,-45.24714,-27.94769,1001.631
0.402064800,0.08352815,0.2886801,0.06318989,-0.4819463,0.1109452,0.8494382,26.68958,-45.24714,-27.94769,1001.633
0.404561996,0.08350191,0.3481488,0.001969845,-0.4795195,0.1120069,0.8522952,26.68958,-45.24714,-27.94769,1001.633
0.407059193,0.1454378,0.2884801,0.001969227,-0.4789657,0.1080771,0.848024,26.68958,-45.24714,-27.94769,1001.633
0.409556866,0.08342998,0.3479488,0.001968608,-0.4829807,0.1143663,0.852758,26.68958,-45.24714,-27.94769,1001.633
0.412054062,0.207328,0.5860767,0.00196799,-0.4839301,0.1122946,0.8446531,26.68958,-45.24714,-27.94769,1001.633
0.414551258,0.2072628,0.4667739,0.001967371,-0.479524,0.1119425,0.847519,26.68958,-45.24714,-27.94769,1001.633
0.417048454,0.08327353,0.3475087,-0.1816339,-0.4790356,0.111953,0.8475186,26.68958,-45.24714,-27.94769,1001.633
0.419546127,0.02128528,0.5260774,-0.1815768,-0.479459,0.1079957,0.8427705,26.68958,-45.24714,-27.94769,1001.633
0.422043323,-0.0406835,0.3472342,0.06328106,-0.4784749,0.1075121,0.8413404,26.68958,-45.24714,-27.94769,1001.633
0.424540520,0.02129137,0.525803,-0.1203394,-0.4843013,0.1054255,0.8399256,26.68958,-45.24714,-27.94769,1001.633
0.427037716,0.2071709,0.6447565,-0.05910142,-0.4810085,0.1128494,0.8451251,26.68958,-45.24714,-27.94769,1001.633
0.429534912,0.2071059,0.3467574,0.002117352,-0.4790686,0.11392,0.8494152,26.68958,-45.24714,-27.94769,1001.633
0.432032585,0.330965,0.4657671,0.002116687,-0.4828909,0.1089443,0.8465871,26.68958,-45.24714,-27.94769,1001.633
0.434529304,0.08301264,0.2869428,-0.1202844,-0.4867769,0.1079348,0.8499402,26.68958,-45.24714,-27.94769,1001.633
0.437026501,0.2069107,0.2868527,-0.1202466,-0.4780695,0.1124335,0.8456039,26.68958,-45.24714,-27.94769,1001.633
0.439523697,0.2068457,0.4058812,-0.05900862,-0.4756184,0.1120136,0.8465609,26.68958,-45.24714,-27.94769,1001.633
0.442020893,-0.1649918,0.5844316,0.002210125,-0.4731285,0.1097106,0.8518302,26.68958,-45.24714,-27.94769,1001.629
0.444518566,0.2068326,0.6438073,0.06340963,-0.4845666,0.09398052,0.8557705,26.68958,-45.24714,-27.94769,1001.629
0.447015762,0.3306918,0.5244864,0.06338971,-0.4987394,0.0941161,0.8524342,26.68958,-45.24714,-27.94769,1001.629
0.449512958,0.5164742,0.2860844,-0.2426312,-0.4833893,0.1093998,0.8451511,26.68958,-45.24714,-27.94769,1001.629
0.452010155,0.7641603,-0.1309206,-0.1813548,-0.4696116,0.1310381,0.8435556,26.68958,-45.24714,-27.94769,1001.629
0.454507828,0.4541098,0.1073578,0.002302794,-0.4805781,0.1428428,0.8363128,26.68958,-45.24714,-27.94769,1001.629
0.457005024,-0.5993884,0.4051205,0.1859027,-0.4877146,0.1054229,0.8451821,26.68958,-45.24714,-27.94769,1001.629
0.459502220,-0.4133138,0.8219084,-0.05895653,-0.4922607,0.05921055,0.8459921,26.68958,-45.24714,-27.94769,1001.629
0.461999416,0.7640957,0.4642944,0.247063,-0.5082532,0.07861696,0.834399,26.68958,-45.24714,-27.94769,1001.629
0.464497089,1.383477,-0.1910038,0.3693858,-0.4824761,0.1127792,0.8422605,26.68958,-45.24714,-27.94769,1001.629
0.466994285,1.135194,-0.1313845,0.2468693,-0.4631131,0.1235774,0.8560243,26.68958,-45.24714,-27.94769,1001.629
0.469491482,0.5771781,0.2855719,0.06319117,-0.4744286,0.1276133,0.8493148,26.68958,-45.24714,-27.94769,1001.629
0.471988678,0.2671863,-0.01231433,0.001971118,-0.4779233,0.1313191,0.8416479,26.68958,-45.24714,-27.94769,1001.629
0.474486351,-0.04270805,-0.01231047,0.1855711,-0.4753088,0.1222669,0.8503089,26.68958,-45.24714,-27.94769,1001.629
0.476983547,-0.3525051,0.4046085,0.3691134,-0.4950444,0.1058021,0.8490049,26.68958,-45.24714,-27.94769,1001.629
0.479480743,-0.5382806,0.4640407,0.00179624,-0.5037166,0.09814677,0.8352123,26.68958,-45.24714,-27.94769,1001.629
0.481977939,-0.04241478,0.04697981,0.1241961,-0.4869631,0.08969124,0.8295309,26.68958,-45.24714,-27.94769,1001.629
0.484475613,0.7011437,-0.07215355,0.2465575,-0.4699168,0.09308019,0.837617,26.68958,-45.24714,-27.94769,1001.629
0.486972809,1.19662,0.1661063,0.24648,-0.4735247,0.1049244,0.8575965,26.68958,-45.24714,-27.94769,1001.629
0.489470005,1.382131,0.2851727,0.3076028,-0.4899728,0.1229611,0.8531785,26.68958,-45.24714,-27.94769,1001.629
0.491967201,0.8240374,0.2850831,0.1851057,-0.4882502,0.1355499,0.8478333,26.68958,-45.24714,-27.94769,1001.629
0.494464874,-0.3535012,-0.01280292,-0.05975322,-0.4782031,0.1202756,0.8512801,26.68958,-45.24714,-27.94769,1001.629
0.496962070,-0.8490869,0.2254383,0.06266595,-0.4758326,0.09702982,0.8519222,27.06326,-45.6166,-28.3885,1001.629
0.499459267,0.01864915,0.4636047,0.1850467,-0.4943071,0.09108622,0.8366902,27.06326,-45.6166,-28.3885,1001.629
0.501956463,0.7621884,-0.07257466,0.2461887,-0.4890933,0.09991778,0.8351911,27.06326,-45.6166,-28.3885,1001.629
0.504453659,1.009797,-0.1321112,0.123711,-0.4630339,0.1186149,0.8479394,27.06326,-45.6166,-28.3885,1001.629
0.506951332,0.7616317,0.1061675,0.3072727,-0.4680243,0.1255102,0.8631784,27.06326,-45.6166,-28.3885,1001.629
0.509448528,0.07980943,0.46349,0.1847758,-0.4967885,0.1212808,0.8474625,27.06326,-45.6166,-28.3885,1001.629
0.511945724,-0.2919882,0.2251072,0.3683183,-0.5014871,0.1104026,0.8403779,27.06326,-45.6166,-28.3885,1001.629
0.514442921,-0.04404809,-0.07276005,0.1234018,-0.4811964,0.09580193,0.8414255,27.06326,-45.6166,-28.3885,1001.629
0.516940594,0.3277383,-0.1918558,0.1233631,-0.4704254,0.09460934,0.843816,27.06326,-45.6166,-28.3885,1001.629
0.519437790,0.6374458,0.106001,0.2457247,-0.4730895,0.1072196,0.8470713,27.06326,-45.6166,-28.3885,1001.629
0.521934986,0.6372455,0.2250863,0.1844473,-0.4855262,0.1195297,0.8436471,27.06326,-45.6166,-28.3885,1001.629
0.524432182,0.8229316,-0.1323402,0.06198896,-0.4832217,0.1273727,0.8455004,27.06326,-45.6166,-28.3885,1001.631
0.526929855,0.1410901,-0.01318005,0.3067703,-0.4826876,0.1256031,0.8574544,27.06326,-45.6166,-28.3885,1001.631
0.529427051,-0.7883856,-0.1918538,0.1230733,-0.4858188,0.1082993,0.8394284,27.06326,-45.6166,-28.3885,1001.631
0.531924248,-0.4163654,-0.1917935,0.1230346,-0.4807669,0.09862757,0.8342401,27.06326,-45.6166,-28.3885,1001.631
0.534420967,0.5751588,-0.132174,0.3065966,-0.4851924,0.1005322,0.8385282,27.06326,-45.6166,-28.3885,1001.631
0.536918163,0.9467507,-0.2512511,0.3065003,-0.4887771,0.1102677,0.8461034,27.06326,-45.6166,-28.3885,1001.631
0.539415836,0.4507566,-0.2511721,0.2452038,-0.4713736,0.1209337,0.853182,27.06326,-45.6166,-28.3885,1001.631
0.541913032,0.1408045,-0.1915339,0.1227264,-0.4711985,0.1118613,0.8642329,27.06326,-45.6166,-28.3885,1001.631
0.544410229,-0.04512601,0.04676344,0.0614876,-0.4869537,0.1175956,0.8465277,27.06326,-45.6166,-28.3885,1001.631
0.546907425,-0.169036,-0.1319292,0.1838687,-0.4959545,0.1284009,0.8340366,26.6959,-45.61603,-27.94127,1001.631
0.549405098,-0.4787933,-0.3701249,0.06141052,-0.4765663,0.1105754,0.8494377,26.6959,-45.61603,-27.94127,1001.631
0.551902294,-0.4786429,-0.1913307,0.1225914,-0.473787,0.09168846,0.8486155,26.6959,-45.61603,-27.94127,1001.631
0.554399490,-0.04475793,-0.1317113,0.06135271,-0.4838143,0.1054167,0.8384925,26.6959,-45.61603,-27.94127,1001.631
0.556896686,0.6368392,-0.2507885,0.1837338,-0.4810072,0.1128687,0.846558,26.6959,-45.61603,-27.94127,1001.631
0.559394359,0.6366391,-0.01247256,0.1224759,-0.4864126,0.115315,0.8565746,26.6959,-45.61603,-27.94127,1001.631
0.561891556,-0.107106,-0.2507058,3.70373E-05,-0.479132,0.1172784,0.8465254,26.6959,-45.61603,-27.94127,1001.631
0.564388752,-0.3549207,-0.3101864,0.1224374,-0.4764937,0.1067381,0.8528087,26.6959,-45.61603,-27.94127,1001.631
0.566885948,0.01696329,0.04726687,0.2447994,-0.4859495,0.1155723,0.8388989,26.6959,-45.61603,-27.94127,1001.631
0.569383621,0.01695796,-0.1909852,0.1223221,-0.4864373,0.1155683,0.8393769,26.6959,-45.61603,-27.94127,1001.631
0.571880817,-0.1069715,-0.1909252,0.1222836,-0.4783784,0.1028009,0.8518826,26.6959,-45.61603,-27.94127,1001.631
0.574378014,0.07894833,-0.0121873,0.1222452,-0.4827598,0.1016777,0.8475941,26.6959,-45.61603,-27.94127,1001.631
0.576875210,0.1408856,-0.1313021,0.1222068,-0.4847783,0.1049684,0.8427952,26.6959,-45.61603,-27.94127,1001.631
0.579372406,0.4506518,-0.2503794,0.1833686,-0.4800617,0.1148824,0.8503643,26.6959,-45.61603,-27.94127,1001.631
0.581870079,0.0167756,-0.1907415,0.1221108,-0.4772049,0.1187763,0.8465136,26.6959,-45.61603,-27.94127,1001.631
0.584367275,0.2026566,0.1666743,0.06087225,-0.4800417,0.1139505,0.853237,26.6959,-45.61603,-27.94127,1001.631
0.586864471,0.2025929,-0.07161529,0.1832535,-0.4879347,0.1175102,0.8417523,26.6959,-45.61603,-27.94127,1001.631
0.589361668,-0.04531907,-0.1907114,0.1219958,-0.4893471,0.1145733,0.8422517,26.6959,-45.61603,-27.94127,1001.631
0.591859341,0.07861935,-0.07153289,0.1831576,-0.4843387,0.1085499,0.8556663,26.6959,-45.61603,-27.94127,1001.631
0.594356537,0.1405568,-0.1310697,0.1831001,-0.4842773,0.1045516,0.8470969,26.6959,-45.61603,-27.94127,1001.631
0.596853733,0.1405126,-0.07146924,0.1830426,-0.4803056,0.101303,0.8518944,26.32205,-45.25507,-27.94693,1001.631
0.599350929,0.3883168,-0.1310061,-0.06181575,-0.4765832,0.1115525,0.8499084,26.32205,-45.25507,-27.94693,1001.631
0.601848602,0.3262327,-0.1309649,-0.0005961247,-0.4738286,0.1219098,0.8574755,26.32205,-45.25507,-27.94693,1001.631
0.604345798,-0.1076044,0.04775411,0.3054051,-0.4805787,0.1162892,0.8474886,26.32205,-45.25507,-27.94693,1001.631
0.606842995,-0.2934569,0.1072984,0.1829087,-0.4882158,0.1064474,0.8499517,26.32205,-45.25507,-27.94693,1001.631
0.609340191,0.14037,-0.1309725,0.1828513,-0.4871216,0.09961624,0.8457007,26.32205,-45.25507,-27.94693,1001.631
0.611837864,0.4501363,-0.3691685,0.3663944,-0.4829002,0.108809,0.836557,26.32205,-45.25507,-27.94693,1001.631
0.614335060,0.511957,-0.1903747,0.3662793,-0.4809486,0.1094394,0.8441941,26.32205,-45.25507,-27.94693,1001.631
0.616832256,0.5737582,-0.1903149,0.2437638,-0.4849804,0.1167057,0.8493989,26.32205,-45.25507,-27.94693,1001.631
0.619329452,0.3257296,-0.2498144,0.1824871,-0.478112,0.1148729,0.8465419,26.32205,-45.25507,-27.94693,1001.631
0.621827125,0.139741,-0.2497359,0.06002932,-0.474534,0.1062626,0.8504226,26.32205,-45.25507,-27.94693,1001.631
0.624324322,0.2016592,-0.1900981,0.1212107,-0.4844244,0.1128081,0.8475157,26.32205,-45.25507,-27.94693,1001.631
0.626821518,0.01570959,-0.1900384,0.243573,-0.48392,0.1118286,0.8460894,26.32205,-45.25507,-27.94693,1001.631
0.629318714,0.07766674,-0.3686566,0.1822963,-0.48346,0.1132628,0.8436906,26.32205,-45.25507,-27.94693,1001.631
0.631816387,0.07764234,-0.3685408,0.1210388,-0.4774857,0.1071058,0.8456416,26.32205,-45.25507,-27.94693,1001.631
0.634313583,0.5113526,-0.1301878,0.1210008,-0.4868352,0.1107564,0.8432328,26.32205,-45.25507,-27.94693,1001.631
0.636810303,0.5111919,-0.4279434,0.182163,-0.4829499,0.1123672,0.8484733,26.32205,-45.25507,-27.94693,1001.631
0.639307976,0.263183,-0.2491311,0.1209055,-0.4765254,0.1087244,0.8561382,26.32205,-45.25507,-27.94693,1001.631
0.641804695,0.2011382,-0.3086121,0.05966735,-0.4727081,0.113015,0.8441637,26.32205,-45.25507,-27.94693,1001.631
0.644302368,0.3249992,-0.3085152,0.1208488,-0.4850601,0.1204399,0.838386,26.32205,-45.25507,-27.94693,1001.635
0.646799564,0.07704873,-0.4275368,0.2432112,-0.4854311,0.1141849,0.8432075,26.32838,-45.62395,-27.9405,1001.635
0.649296760,-0.04689965,-0.4869618,0.1819346,-0.4798673,0.1036433,0.8447125,26.32838,-45.62395,-27.9405,1001.635
0.651793957,0.3248876,-0.2485716,0.05947707,-0.4798504,0.1026663,0.8442417,26.32838,-45.62395,-27.9405,1001.635
0.654291153,0.5726339,-0.2484935,0.243059,-0.4868878,0.1136617,0.8427344,26.32838,-45.62395,-27.9405,1001.635
0.656788826,0.3246056,-0.3079748,0.1817824,-0.479006,0.1105487,0.8513499,26.32838,-45.62395,-27.9405,1001.635
0.659286022,0.2625416,-0.4269966,0.1817253,-0.4770406,0.1101569,0.8551729,26.32838,-45.62395,-27.9405,1001.635
0.661783218,0.3244212,-0.2481846,0.120468,-0.4795587,0.1138837,0.8475052,26.32838,-45.62395,-27.9405,1001.635
0.664280415,0.2623572,-0.4267845,0.2428306,-0.4776433,0.1158218,0.8441465,26.32838,-45.62395,-27.9405,1001.635
0.666778088,0.1383506,-0.4862097,0.1203539,-0.479451,0.1081117,0.8513677,26.32838,-45.62395,-27.9405,1001.635
0.669275284,0.07634504,-0.3073791,0.1815163,-0.4774817,0.1071638,0.8499402,26.32838,-45.62395,-27.9405,1001.635
0.671772480,0.01435897,-0.3072825,0.1202591,-0.4799985,0.1109099,0.8437054,26.32838,-45.62395,-27.9405,1001.635
0.674269676,0.07631655,-0.4263046,0.05902108,-0.4751623,0.1133898,0.8398635,26.32838,-45.62395,-27.9405,1001.635
0.676767349,0.386103,-0.1879334,0.3038034,-0.476108,0.1119838,0.8451284,26.32838,-45.62395,-27.9405,1001.635
0.679264545,0.2620575,-0.3665523,0.2425077,-0.4795355,0.1129969,0.8537211,26.32838,-45.62395,-27.9405,1001.635
0.681761742,0.2619752,-0.1877593,0.3036317,-0.4843292,0.1080775,0.856625,26.32838,-45.62395,-27.9405,1001.635
0.684258938,0.1379687,-0.3068189,0.05873552,-0.4799406,0.1080818,0.8499352,26.32838,-45.62395,-27.9405,1001.635
0.686756611,0.2618496,-0.3067225,-0.002483136,-0.4829553,0.1122898,0.8427419,26.32838,-45.62395,-27.9405,1001.635
0.689257622,0.1998052,-0.06838892,0.119918,-0.4850434,0.1200706,0.8469866,26.32838,-45.62395,-27.9405,1001.635
0.691751003,0.1377804,-0.187486,0.1810806,-0.4854102,0.1132659,0.8470353,26.32838,-45.62395,-27.9405,1001.635
0.694248199,0.3855854,-0.1874271,0.1810237,-0.4863178,0.1093561,0.8465862,26.32838,-45.62395,-27.9405,1001.635
0.696745872,0.3235022,-0.06824965,0.242167,-0.4804354,0.1085889,0.8523201,26.32205,-45.25507,-27.94693,1001.635
0.699243069,0.4473248,-0.1277875,0.1808907,-0.4766349,0.1144707,0.8503653,26.32205,-45.25507,-27.94693,1001.635
0.701740265,0.32326,-0.00862876,0.1196337,-0.4761227,0.1129931,0.8479872,26.32205,-45.25507,-27.94693,1001.635
0.704237461,0.3231585,0.1104926,-0.002804279,-0.4844413,0.1137851,0.8479864,26.32205,-45.25507,-27.94693,1001.635
0.706735134,0.3850191,0.05089854,0.0583968,-0.4830572,0.1181456,0.8450885,26.32205,-45.25507,-27.94693,1001.635
0.709232330,0.322936,0.05088255,0.2419791,-0.4809884,0.1119174,0.8479977,26.32205,-45.25507,-27.94693,1001.635
0.711729526,0.2608725,0.1699852,0.241903,-0.4780321,0.110531,0.8484835,26.32205,-45.25507,-27.94693,1001.635
0.714226723,0.2607905,0.1103725,0.05822644,-0.478957,0.1075918,0.8480274,26.32205,-45.25507,-27.94693,1001.635
0.716724396,0.3226707,-0.06834011,0.1194083,-0.4835253,0.1165955,0.8388902,26.32205,-45.25507,-27.94693,1001.635
0.719221592,0.6943419,-0.06831864,0.3641717,-0.4840353,0.1174911,0.8341075,26.32205,-45.25507,-27.94693,1001.635
0.721718788,0.5082374,0.1103807,0.302857,-0.4829818,0.1137393,0.8422539,26.32205,-45.25507,-27.94693,1001.635
0.724215984,0.7559261,0.2294647,0.2415617,-0.4823497,0.1060559,0.8475627,26.32205,-45.25507,-27.94693,1001.635
0.726713657,0.5698024,-0.008844648,-0.06451521,-0.4805184,0.1128856,0.8470352,26.32205,-45.25507,-27.94693,1001.635
0.729210854,0.3837371,0.05071743,-0.00329474,-0.4790256,0.111487,0.8489549,26.32205,-45.25507,-27.94693,1001.635
0.731708050,0.4455787,0.1698201,0.1191067,-0.4859054,0.1137665,0.8489427,26.32205,-45.25507,-27.94693,1001.635
0.734205246,0.5693628,0.1102075,0.1802695,-0.484,0.1161705,0.8441478,26.32205,-45.25507,-27.94693,1001.635
0.736702919,0.5691839,0.1697321,0.05781244,-0.4835137,0.116763,0.8513083,26.32205,-45.25507,-27.94693,1001.635
0.739199161,0.445081,0.0505602,0.05779428,-0.4829608,0.1128202,0.8460817,26.32205,-45.25507,-27.94693,1001.635
0.741696835,0.321017,0.05054432,0.1801765,-0.4805055,0.1118506,0.842266,26.32205,-45.25507,-27.94693,1001.635
0.744194031,0.3828782,0.2292063,-0.003480679,-0.4829344,0.1113708,0.8465698,26.32205,-45.25507,-27.94693,1001.635
0.746691227,0.6306063,0.2886936,-0.003479586,-0.4858346,0.1099034,0.8504032,26.32205,-45.25507,-27.94693,1001.635
0.749188423,0.6304082,0.1694843,0.1801221,-0.4785396,0.1114653,0.8465665,26.32205,-45.25507,-27.94693,1001.635
0.751686096,0.6302102,0.1098718,0.1188653,-0.4809459,0.1094781,0.8470598,26.32205,-45.25507,-27.94693,1001.635
0.754183292,0.56805,0.1098373,0.118828,-0.4843534,0.1083373,0.8399049,26.32205,-45.25507,-27.94693,1001.635
0.756680489,0.6917958,0.2289214,0.1187906,-0.479047,0.1123997,0.8446495,26.32205,-45.25507,-27.94693,1001.635
0.759177685,0.9394268,0.2884088,0.1799535,-0.4804885,0.1108736,0.8417953,26.32205,-45.25507,-27.94693,1001.635
0.761675358,1.063056,0.1096402,0.179897,-0.480014,0.1119062,0.8456089,26.32205,-45.25507,-27.94693,1001.635
0.764175892,0.5670252,0.1691651,0.3022409,-0.4790938,0.1153888,0.8503602,26.32205,-45.25507,-27.94693,1001.639
0.766669750,0.2570366,0.2882306,0.2409457,-0.4780637,0.1125173,0.851813,26.32205,-45.25507,-27.94693,1001.639
0.769166946,0.38088,0.3476993,0.05726943,-0.4824064,0.109511,0.851837,26.32205,-45.25507,-27.94693,1001.639
0.771664619,0.3807603,0.1689122,-0.003948761,-0.4800011,0.1108712,0.8408397,26.32205,-45.25507,-27.94693,1001.639
0.774161816,0.6904512,0.1092998,0.2408533,-0.4790479,0.1123868,0.8436942,26.32205,-45.25507,-27.94693,1001.639
0.776659012,0.9380826,0.2283841,0.1183772,-0.4771667,0.1162725,0.8407995,26.32205,-45.25507,-27.94693,1001.639
0.779156208,0.8138638,0.3474309,0.11834,-0.480619,0.1187608,0.8508146,26.32205,-45.25507,-27.94693,1001.639
0.781653881,0.5037976,0.4068811,0.1183029,-0.4799787,0.1105856,0.8556493,26.32205,-45.25507,-27.94693,1001.639
0.784151077,0.007942609,0.347194,0.1182657,-0.4818166,0.1036593,0.8490124,26.32205,-45.25507,-27.94693,1001.639
0.786648273,0.1938264,0.2875256,-0.06537208,-0.4794373,0.1064754,0.8380047,26.32205,-45.25507,-27.94693,1001.639
0.789145470,0.9992727,0.3469945,-0.004151337,-0.4795754,0.114253,0.8389046,26.32205,-45.25507,-27.94693,1001.639
0.791643143,1.246807,0.4660041,0.05705017,-0.4791585,0.1187278,0.8460373,26.32205,-45.25507,-27.94693,1001.639
0.794140339,0.8126808,0.2276205,-0.1265684,-0.4811063,0.1193773,0.8613192,26.32205,-45.25507,-27.94693,1001.639
0.796637535,0.3167287,0.2871083,-0.1877288,-0.4810517,0.11589,0.8546567,26.31573,-44.88618,-27.95335,1001.639
0.799134731,-0.3029917,0.2870181,-0.06526942,-0.4798929,0.1051056,0.8451797,26.31573,-44.88618,-27.95335,1001.639
0.801632881,-0.4268206,0.1678094,-0.004048711,-0.4808341,0.1025421,0.8366005,26.31573,-44.88618,-27.95335,1001.639
0.804129600,0.5027448,0.3464345,0.05715276,-0.4790433,0.1112293,0.8298502,26.31573,-44.88618,-27.95335,1001.639
0.806626797,1.246132,0.4654443,0.05713481,-0.4796702,0.1202119,0.848893,26.31573,-44.88618,-27.95335,1001.639
0.809123993,0.93593,0.5248573,-0.004083343,-0.4811706,0.1227228,0.857474,26.31573,-44.88618,-27.95335,1001.639
0.811621666,0.3160151,0.5246925,-0.06528226,-0.4815567,0.1174707,0.8646767,26.31573,-44.88618,-27.95335,1001.639
0.814118862,-0.179781,0.584087,-0.06526175,-0.4867295,0.1055663,0.8542561,26.31573,-44.88618,-27.95335,1001.639
0.816616058,-0.4895349,0.5243441,0.05715915,-0.4852563,0.1038842,0.8351606,26.31573,-44.88618,-27.95335,1001.639
0.819113255,0.3780881,0.4050608,-0.004059006,-0.4814328,0.108265,0.8298728,26.31573,-44.88618,-27.95335,1001.639
0.821610928,1.245439,0.285815,-0.004057731,-0.4757357,0.1182581,0.8417398,26.31573,-44.88618,-27.95335,1001.639
0.824108124,1.121123,0.4644031,0.05714374,-0.4762428,0.1204207,0.8589206,26.31573,-44.88618,-27.95335,1001.639
0.826605320,0.5011501,0.5833758,-0.004074408,-0.480575,0.1169549,0.8608585,26.31573,-44.88618,-27.95335,1001.639
0.829102516,0.005295902,0.6427518,0.05712707,-0.4828231,0.1056503,0.8542532,26.31573,-44.88618,-27.95335,1001.639
0.831600189,-0.1186299,0.5234313,-0.1264915,-0.4807398,0.09779872,0.8447547,26.31573,-44.88618,-27.95335,1001.639
0.834097385,0.1292557,0.4041482,0.1795493,-0.4784538,0.1059853,0.8360969,26.31573,-44.88618,-27.95335,1001.639
0.836594582,0.9347223,0.7018178,0.1794929,-0.4809721,0.1103198,0.8375005,26.31573,-44.88618,-27.95335,1001.639
0.839091778,1.306201,0.642038,0.1182363,-0.4849452,0.114771,0.8498904,26.31573,-44.88618,-27.95335,1001.639
0.841589451,0.8100941,0.5227177,0.1181991,-0.4859469,0.1168329,0.8603848,26.31573,-44.88618,-27.95335,1001.639
0.844086647,0.1902187,0.5821128,0.05696179,-0.4810568,0.1164269,0.8584742,26.31573,-44.88618,-27.95335,1001.639
0.846583366,0.06623473,0.6414892,0.05694389,-0.4799898,0.1104246,0.8437088,25.96085,-45.63187,-27.93974,1001.641
0.849080563,0.2521002,0.5817284,-0.004274195,-0.4848143,0.1068902,0.8413485,25.96085,-45.63187,-27.93974,1001.641
0.851577759,0.3139831,0.6411049,0.05692735,-0.4824498,0.1107156,0.8331996,25.96085,-45.63187,-27.93974,1001.641
0.854074955,0.8715433,0.5217849,0.2405101,-0.4786426,0.1166941,0.8384089,25.96085,-45.63187,-27.93974,1001.641
0.856572628,0.9951937,0.6407396,0.1792343,-0.4855186,0.1196392,0.8517666,25.96085,-45.63187,-27.93974,1001.641
0.859069824,0.4991843,0.5214197,-0.004422603,-0.4811138,0.1192678,0.8531997,25.96085,-45.63187,-27.93974,1001.641
0.861567020,-0.1205935,0.4021373,-0.004421214,-0.4781016,0.1144134,0.8484558,25.96085,-45.63187,-27.93974,1001.641
0.864064217,-0.1825177,0.3424516,-0.06562003,-0.4769965,0.1071292,0.8465965,25.96085,-45.63187,-27.93974,1001.641
0.866561890,0.003425948,0.2827848,0.1792014,-0.4808422,0.1036481,0.8466237,25.96085,-45.63187,-27.93974,1001.641
0.869059086,0.4371595,0.5209331,0.2403453,-0.4818882,0.1075094,0.8465967,25.96085,-45.63187,-27.93974,1001.641
0.871556282,0.6848706,0.5207695,0.05666919,-0.4838355,0.1069435,0.8437359,25.96085,-45.63187,-27.93974,1001.641
0.874053478,0.436807,0.4610466,0.1790518,-0.4884008,0.1166,0.8470134,25.96085,-45.63187,-27.93974,1001.641
0.876551151,0.3127456,0.2226645,0.1789955,-0.4854554,0.1156666,0.8451076,25.96085,-45.63187,-27.93974,1001.641
0.879048347,0.5604957,0.2821539,0.1789393,-0.4829119,0.1098634,0.8427592,25.96085,-45.63187,-27.93974,1001.641
0.881545544,0.4983575,0.4607431,0.05648268,-0.4883545,0.1136044,0.8408251,25.96085,-45.63187,-27.93974,1001.641
0.884042740,0.498201,0.3414798,0.1176651,-0.4791042,0.1158483,0.8484462,25.96085,-45.63187,-27.93974,1001.641
0.886540413,0.4980445,0.3413725,0.1176282,-0.4785912,0.1143835,0.8470234,25.96085,-45.63187,-27.93974,1001.645
0.889037609,0.3120017,0.04346876,-0.00480918,-0.4824964,0.1143188,0.8484591,25.96085,-45.63187,-27.93974,1001.645
0.891534805,0.2499416,0.0434551,-0.00480767,-0.4829014,0.1094038,0.8446732,25.96085,-45.63187,-27.93974,1001.645
0.894032001,0.1259389,0.04344145,0.05639404,-0.4854371,0.1147089,0.8460697,25.96085,-45.63187,-27.93974,1001.645
0.896529675,0.06393726,0.1029871,0.05637632,-0.4820893,0.1186519,0.8450844,26.32222,-45.24657,-27.50046,1001.645
0.899026871,0.3117656,-0.01616385,0.178759,-0.4820294,0.115242,0.8441533,26.32222,-45.24657,-27.50046,1001.645
0.901528835,0.3736297,-0.01615877,0.1787029,-0.4779938,0.1086414,0.8523183,26.32222,-45.24657,-27.50046,1001.645
0.904021263,0.2495881,0.2220835,0.05624631,-0.4785404,0.1114524,0.8456112,26.32222,-45.24657,-27.50046,1001.645
0.906518936,0.3114718,0.04333583,0.2398292,-0.4848793,0.110837,0.846097,26.32222,-45.24657,-27.50046,1001.645
0.909016132,0.1874498,0.04332222,-0.06624711,-0.4799682,0.1101261,0.8575632,26.32222,-45.24657,-27.50046,1001.645
0.911513329,0.1254288,-0.01625069,-0.06622629,-0.477049,0.1100345,0.8460981,26.32222,-45.24657,-27.50046,1001.645
0.914010525,0.1253894,0.102873,0.3009957,-0.4810746,0.1161691,0.8393695,26.32222,-45.24657,-27.50046,1001.645
0.916508198,0.1873121,0.1028407,0.3009012,-0.4864146,0.114675,0.8451152,26.32222,-45.24657,-27.50046,1001.645
0.919005394,0.3111774,0.04324909,0.3008066,-0.4877177,0.1053778,0.8418387,26.32222,-45.24657,-27.50046,1001.645
0.921502590,0.1871555,-0.254561,0.3007121,-0.4872592,0.1074003,0.8470783,26.32222,-45.24657,-27.50046,1001.645
0.923999786,0.1870967,-0.1949217,0.2394175,-0.4834474,0.1128355,0.8479926,26.32222,-45.24657,-27.50046,1001.645
0.926497459,0.06311373,-0.1353012,0.05574164,-0.4829646,0.1133764,0.8513321,26.32222,-45.24657,-27.50046,1001.644
0.928994656,0.2489802,-0.01614008,0.1781245,-0.4863333,0.1103524,0.8484896,26.32222,-45.24657,-27.50046,1001.644
0.931491852,0.1249778,-0.01613501,0.2392688,-0.48398,0.1152386,0.8470204,26.32222,-45.24657,-27.50046,1001.644
0.933989048,0.1869006,-0.1948078,0.055593,-0.485491,0.1175949,0.8441385,26.32222,-45.24657,-27.50046,1001.644
0.936486721,0.3107661,-0.07562804,0.2391761,-0.4869759,0.1184953,0.841267,26.32222,-45.24657,-27.50046,1001.644
0.938983917,0.1867442,0.1030736,0.3615014,-0.4854589,0.1156151,0.8412867,26.32222,-45.24657,-27.50046,1001.644
0.941481113,0.1866856,-0.2543146,0.116587,-0.4886509,0.1029303,0.8418567,26.32222,-45.24657,-27.50046,1001.644
0.943978310,0.248589,-0.313794,0.1777506,-0.489752,0.1102725,0.8480146,26.32222,-45.24657,-27.50046,1001.644
0.946475983,0.1865488,-0.2541361,0.1776948,-0.4853755,0.1113247,0.8470492,26.32838,-45.62395,-27.9405,1001.644
0.948972225,0.3723765,-0.2540562,0.1776389,-0.4829677,0.1133313,0.8479888,26.32838,-45.62395,-27.9405,1001.644
0.951469898,0.2483353,-0.1944171,0.2387833,-0.4815144,0.1144172,0.8541899,26.32838,-45.62395,-27.9405,1001.644
0.953967094,-0.1854773,-0.4325933,0.2387083,-0.4868148,0.1098309,0.8465831,26.32838,-45.62395,-27.9405,1001.644
0.956464291,-0.06149486,-0.4324573,0.2998335,-0.4819486,0.1109129,0.8470501,26.32838,-45.62395,-27.9405,1001.644
0.958961487,0.0004865453,-0.3132029,0.1773389,-0.4825173,0.1152379,0.8446313,26.32838,-45.62395,-27.9405,1001.644
0.961459160,0.06244848,-0.4322231,0.116083,-0.4829987,0.1147163,0.8427246,26.32838,-45.62395,-27.9405,1001.644
0.963956356,-0.1234574,-0.4320873,-0.006353862,-0.4766175,0.1135001,0.8503722,26.32838,-45.62395,-27.9405,1001.644
0.966453552,0.0005055591,-0.3723923,0.1160485,-0.4806747,0.121621,0.8469729,26.32838,-45.62395,-27.9405,1001.642
0.968950748,0.06246749,-0.4318346,0.05481188,-0.4874451,0.11754,0.8431847,26.32838,-45.62395,-27.9405,1001.642
0.971448421,0.0004857779,-0.253021,0.1159949,-0.476177,0.1158726,0.8455783,26.32838,-45.62395,-27.9405,1001.642
0.973945618,0.0004856288,-0.1338229,-0.006441983,-0.4795195,0.1120069,0.8522952,26.32838,-45.62395,-27.9405,1001.642
0.976442814,0.3102959,-0.1337809,-0.1288404,-0.4853808,0.1112474,0.8413178,26.32838,-45.62395,-27.9405,1001.642
0.978940010,0.06235009,-0.3124168,0.05480072,-0.4864295,0.1150701,0.8384251,26.32838,-45.62395,-27.9405,1001.642
0.981437683,0.3101789,-0.0145221,-0.0064167,-0.4770268,0.1091348,0.8513589,26.32838,-45.62395,-27.9405,1001.642
0.983934879,0.3720435,-0.01451754,-0.006414684,-0.4805727,0.1157652,0.8446264,26.32838,-45.62395,-27.9405,1001.642
0.986432075,0.3719266,-0.2527502,0.05478753,-0.4859866,0.118089,0.8455682,26.32838,-45.62395,-27.9405,1001.642
0.988929272,0.3098477,-0.1931115,0.05477032,-0.4804545,0.1095337,0.8504028,26.32838,-45.62395,-27.9405,1001.642
0.991426945,0.3097503,-0.1930508,0.05475311,-0.4804745,0.1104656,0.8475301,26.32838,-45.62395,-27.9405,1001.642
0.993924141,0.2476909,-0.1334309,0.1159361,-0.4858035,0.1079107,0.8465961,26.32838,-45.62395,-27.9405,1001.642
0.996421337,0.3095752,-0.07382964,0.1158997,-0.4844371,0.1132354,0.8432137,26.3159,-44.87768,-27.50689,1001.642
0.998918533,-0.0003324822,-0.2524844,-0.006537121,-0.4780448,0.1109583,0.8441815,26.3159,-44.87768,-27.50689,1001.642
1.001416206,0.247516,-0.1332864,-0.1289355,-0.4800354,0.1128188,0.8413035,26.3159,-44.87768,-27.50689,1001.642
1.003913402,0.3094003,-0.1332446,0.177106,-0.4830381,0.1172008,0.8470059,26.3159,-44.87768,-27.50689,1001.642
1.006410599,-0.0005073398,-0.1332027,0.05465,-0.4786218,0.1169969,0.860857,26.3159,-44.87768,-27.50689,1001.646
1.008907795,0.1853791,-0.1331609,-0.06776758,-0.4805527,0.1148333,0.847499,26.3159,-44.87768,-27.50689,1001.646
1.011405468,-0.06252751,-0.07355972,0.1158543,-0.4839615,0.1136732,0.8389113,26.3159,-44.87768,-27.50689,1001.646
1.013902664,-0.06250787,-0.1926552,0.1770181,-0.4795144,0.1114701,0.8484777,26.3159,-44.87768,-27.50689,1001.646
1.016399860,0.06143595,-0.3712726,-0.006638088,-0.4805444,0.1143415,0.8470249,26.3159,-44.87768,-27.50689,1001.646
1.018897056,0.06141666,-0.2520373,0.0545642,-0.4809992,0.1129847,0.8551551,26.3159,-44.87768,-27.50689,1001.646
1.021394729,0.2472836,-0.1328396,0.05454706,-0.4825195,0.1152057,0.8422432,26.3159,-44.87768,-27.50689,1001.646
1.023891926,0.1852438,-0.2519164,0.05452992,-0.4819976,0.1138698,0.8503727,26.3159,-44.87768,-27.50689,1001.646
1.026389122,0.06126148,-0.2518373,0.115713,-0.4761588,0.1149149,0.8465405,26.3159,-44.87768,-27.50689,1001.646
1.028886318,0.06124223,-0.07308027,0.238077,-0.4766876,0.1167618,0.840318,26.3159,-44.87768,-27.50689,1001.646
1.031383991,-0.0007390976,-0.01349801,0.2380022,-0.4745663,0.1076283,0.8437256,26.3159,-44.87768,-27.50689,1001.646
1.033881187,-0.0007388666,-0.01349377,0.1155271,-0.4755605,0.1091856,0.8527907,26.3159,-44.87768,-27.50689,1001.646
1.036378383,0.3710339,-0.07304883,0.2378912,-0.4736778,0.112483,0.8422574,26.3159,-44.87768,-27.50689,1001.646
1.038875580,0.3709174,0.04609272,0.2990167,-0.485357,0.1097593,0.83894,26.3159,-44.87768,-27.50689,1001.646
1.041373253,0.3708008,0.1651968,0.1765223,-0.4863703,0.1122614,0.8460877,26.3159,-44.87768,-27.50689,1001.646
1.043870449,0.3087222,0.1651449,0.1764669,-0.480554,0.1148139,0.8460661,26.3159,-44.87768,-27.50689,1001.646
1.046367645,0.5564736,-0.01358484,0.1764114,-0.486827,0.1102646,0.8427587,25.96116,-45.61609,-27.11059,1001.644
1.048864841,0.5562988,0.105538,0.1151558,-0.4883002,0.1107249,0.8432339,25.96116,-45.61609,-27.11059,1001.644
1.051362514,0.8039724,0.1055049,0.2987202,-0.4765972,0.1119604,0.8441735,25.96116,-45.61609,-27.11059,1001.644
1.053859710,0.6178336,0.165031,0.2986264,-0.4735703,0.1073187,0.8551911,25.96116,-45.61609,-27.11059,1001.644
1.056356430,0.5556774,0.2840978,0.4209329,-0.4721472,0.1091883,0.8475344,25.96116,-45.61609,-27.11059,1001.644
1.058853626,0.741389,0.5222457,0.5432011,-0.4755936,0.1105384,0.8451384,25.96116,-45.61609,-27.11059,1001.644
1.061350822,0.9270424,0.402963,0.3594299,-0.476634,0.1144836,0.8513205,25.96116,-45.61609,-27.11059,1001.644
1.063848018,0.8647891,0.4028364,0.4205171,-0.4786475,0.1178451,0.8517753,25.96116,-45.61609,-27.11059,1001.644
1.066345691,0.8025554,0.4027099,0.420385,-0.479214,0.1222022,0.8517446,25.96116,-45.61609,-27.11059,1001.644
1.068842888,0.4924927,0.4621427,0.6038536,-0.4810809,0.1173008,0.851303,25.96116,-45.61609,-27.11059,1001.644
1.071340084,0.6782243,0.6406754,0.4812635,-0.472739,0.1144001,0.8388995,25.96116,-45.61609,-27.11059,1001.644
1.073837280,0.6780112,0.7595928,0.2975117,-0.4669457,0.1184536,0.8422109,25.96116,-45.61609,-27.11059,1001.644
1.076334953,0.6158361,0.9975914,0.3586184,-0.4649285,0.1151436,0.8455769,25.96116,-45.61609,-27.11059,1001.644
1.078832149,0.8634911,1.175956,0.2973055,-0.4536113,0.1111335,0.8541969,25.96116,-45.61609,-27.11059,1001.644
1.081329345,0.987144,1.235146,0.4196125,-0.4443403,0.1118442,0.856097,25.96116,-45.61609,-27.11059,1001.644
1.083826542,0.8629097,1.711232,0.1134797,-0.4420098,0.1182313,0.8579607,25.96116,-45.61609,-27.11059,1001.644
1.086324215,0.5528281,2.127609,-0.1313567,-0.4406371,0.1230385,0.8521937,25.96116,-45.61609,-27.11059,1001.644
1.088821411,0.8005028,2.603415,-0.008915079,-0.4550559,0.1373314,0.854966,25.96116,-45.61609,-27.11059,1001.644
1.091318607,0.6763271,2.602597,-0.07011248,-0.4590977,0.1450637,0.8587347,25.96116,-45.61609,-27.11059,1001.644
1.093815803,-0.06743047,3.137814,-0.1312907,-0.4630655,0.1218231,0.8698891,25.96116,-45.61609,-27.11059,1001.644
1.096313476,-0.4391818,3.672862,-0.07004921,-0.4769471,0.1054006,0.8623717,26.32222,-45.24657,-27.50046,1001.644
1.098810673,-0.2531576,3.612149,-0.2536278,-0.4901666,0.1058299,0.8432699,26.32222,-45.24657,-27.50046,1001.644
1.101308346,-0.005229697,3.670573,-0.1311477,-0.490552,0.09997647,0.8418789,26.32222,-45.24657,-27.50046,1001.644
1.103805065,0.5524307,3.907657,-0.06990632,-0.4830604,0.09033144,0.8347784,26.32222,-45.24657,-27.50046,1001.644
1.106303215,1.853461,4.204226,0.3585171,-0.4963728,0.09735951,0.8371243,26.32222,-45.24657,-27.50046,1001.644
1.108799934,3.09212,3.964668,0.6032052,-0.5028669,0.1061065,0.848052,26.32222,-45.24657,-27.50046,1001.644
1.111297130,2.595452,3.665626,0.7254161,-0.4969544,0.1039414,0.8580949,26.32222,-45.24657,-27.50046,1001.644
1.113794327,1.851092,3.843152,0.8475887,-0.4962057,0.08939297,0.8581983,26.32222,-45.24657,-27.50046,1001.644
1.116292000,2.160321,4.080183,1.153323,-0.5039204,0.08270342,0.8424877,26.32222,-45.24657,-27.50046,1001.644
1.118789196,3.398884,3.840663,1.458962,-0.5040148,0.08744685,0.8343336,26.32222,-45.24657,-27.50046,1001.644
1.121286392,4.69902,3.660779,1.764505,-0.5114178,0.09226468,0.8433791,26.32222,-45.24657,-27.50046,1001.644
1.123783588,4.945392,3.421391,1.947551,-0.5100595,0.09869526,0.8500198,26.32222,-45.24657,-27.50046,1001.644
1.126283645,4.138331,3.062961,2.06934,-0.5062169,0.1021313,0.8466494,26.32222,-45.24657,-27.50046,1001.644
1.128778457,4.198994,3.002439,2.19109,-0.5027764,0.1000832,0.8332874,26.32222,-45.24657,-27.50046,1001.647
1.131275654,4.693371,2.703699,2.312802,-0.5056551,0.0970955,0.8323551,26.32222,-45.24657,-27.50046,1001.647
1.133772850,4.753859,2.345494,2.556876,-0.5087739,0.1071271,0.8251203,26.32222,-45.24657,-27.50046,1001.647
1.136270046,4.876289,2.404316,2.678473,-0.5053561,0.1078083,0.8341891,26.32222,-45.24657,-27.50046,1001.647
1.138767719,4.874757,2.046205,2.738832,-0.4995518,0.1114088,0.8398919,26.32222,-45.24657,-27.50046,1001.647
1.141264915,5.121074,1.866885,2.799172,-0.50116,0.1190776,0.8350615,26.32222,-45.24657,-27.50046,1001.647
1.143762111,4.99715,1.688207,2.921572,-0.5030051,0.11327,0.8394031,26.32222,-45.24657,-27.50046,1001.647
1.146259308,4.749302,1.330851,2.982772,-0.5034974,0.1132015,0.8351048,26.32838,-45.62395,-27.9405,1001.647
1.148756981,4.811264,0.9734952,3.043973,-0.5109227,0.118919,0.8388897,26.32838,-45.62395,-27.9405,1001.647
1.151254177,4.811264,0.5565801,2.860372,-0.5001763,0.1192017,0.8427027,26.32838,-45.62395,-27.9405,1001.647
1.153751373,4.067719,0.2587835,2.921572,-0.4996876,0.1192186,0.8431799,26.32838,-45.62395,-27.9405,1001.647
1.156248569,3.51006,0.1992243,2.921572,-0.4933453,0.1192714,0.8369662,26.32838,-45.62395,-27.9405,1001.647
1.158746242,3.572022,-0.09857224,3.043973,-0.4952162,0.114312,0.8322261,26.32838,-45.62395,-27.9405,1001.647
1.161242962,3.51006,-0.2772501,3.043973,-0.4953158,0.1208141,0.8465097,26.32838,-45.62395,-27.9405,1001.647
1.163740158,3.51006,-0.455928,2.799172,-0.4869699,0.1179714,0.8384047,26.32838,-45.62395,-27.9405,1001.647
1.166237354,3.200249,-0.6346059,2.921572,-0.4914551,0.1226783,0.8345525,26.32838,-45.62395,-27.9405,1001.647
1.168734550,2.518667,-0.6346059,2.921572,-0.4895159,0.1243502,0.8474364,26.32838,-45.62395,-27.9405,1001.645
1.171232223,2.270818,-0.8132839,2.676771,-0.49099,0.1247975,0.8469564,26.32838,-45.62395,-27.9405,1001.645
1.173729420,2.270818,-1.11108,2.493171,-0.4832219,0.1267585,0.8359516,26.32838,-45.62395,-27.9405,1001.645
1.176226616,2.33278,-1.11108,2.37077,-0.4734377,0.1266186,0.8459777,26.32838,-45.62395,-27.9405,1001.645
1.178723812,2.146894,-0.7537246,2.431971,-0.4797259,0.1230721,0.8450514,26.32838,-45.62395,-27.9405,1001.645
1.181221485,2.02297,-0.9919617,2.554371,-0.4866274,0.1262577,0.840256,26.32838,-45.62395,-27.9405,1001.645
1.183718681,2.146894,-1.11108,2.003569,-0.4714315,0.1237618,0.8469523,26.32838,-45.62395,-27.9405,1001.645
1.186215877,1.837084,-0.9324024,1.881169,-0.4690198,0.1258263,0.8521904,26.32838,-45.62395,-27.9405,1001.645
1.188713074,1.341387,-0.9919617,1.881169,-0.4739521,0.128064,0.8459677,26.32838,-45.62395,-27.9405,1001.645
1.191210747,1.217463,-0.9324024,1.575168,-0.4700322,0.1271195,0.8416732,26.32838,-45.62395,-27.9405,1001.645
1.193707943,1.155501,-0.8132839,1.575168,-0.4725648,0.1324696,0.8464131,26.32838,-45.62395,-27.9405,1001.645
1.196205139,1.031576,-0.7537246,1.269167,-0.4773983,0.1300283,0.8531207,26.32868,-45.60817,-27.11135,1001.645
1.198702335,0.7837281,-0.5750467,1.330367,-0.4704852,0.1257884,0.8517139,26.32868,-45.60817,-27.11135,1001.645
1.201200008,0.3499934,-0.455928,1.207966,-0.4752808,0.1202291,0.8431584,26.32868,-45.60817,-27.11135,1001.645
1.203697204,0.4119555,-0.3963687,1.024366,-0.4762188,0.1177107,0.8379226,26.32868,-45.60817,-27.11135,1001.645
1.206194401,0.6598039,-0.455928,0.8407653,-0.4714524,0.1246808,0.8431244,26.32868,-45.60817,-27.11135,1001.645
1.208691597,0.5978417,-0.2176908,0.7795651,-0.4725215,0.1300432,0.8464304,26.32868,-45.60817,-27.11135,1001.645
1.211188793,0.2880313,-0.1581315,0.8407653,-0.4758303,0.1236092,0.842657,26.32868,-45.60817,-27.11135,1001.645
1.213686466,0.1641071,-0.1581315,0.7795651,-0.4784568,0.1337093,0.8397204,26.32868,-45.60817,-27.11135,1001.645
1.216183662,0.2880313,-0.2772501,0.4735641,-0.4715092,0.1281359,0.8473988,26.32868,-45.60817,-27.11135,1001.645
1.218680858,-0.02177916,-0.03901294,0.4735641,-0.4768421,0.125523,0.8421662,26.32868,-45.60817,-27.11135,1001.645
1.221178055,-0.3315896,-0.09857224,0.4123639,-0.4808176,0.1293277,0.8426191,26.32868,-45.60817,-27.11135,1001.645
1.223675728,-0.579438,0.1992243,0.1063629,-0.4787649,0.1240895,0.8469542,26.32868,-45.60817,-27.11135,1001.645
1.226172924,-0.8272863,0.3183429,0.1063629,-0.4717473,0.1146401,0.8551378,26.32868,-45.60817,-27.11135,1001.645
1.228670120,-0.1457033,0.4970208,0.1675631,-0.4811091,0.1187245,0.8489046,26.32868,-45.60817,-27.11135,1001.645
1.231167316,0.4119555,0.3779022,0.04516268,-0.4911687,0.1350403,0.8507047,26.32868,-45.60817,-27.11135,1001.645
1.233664989,-0.2696275,0.3779022,-0.07723773,-0.4857266,0.1312928,0.8521612,26.32868,-45.60817,-27.11135,1001.645
1.236162185,-1.075135,0.4970208,-0.07723773,-0.4868317,0.1108079,0.8470538,26.32868,-45.60817,-27.11135,1001.645
1.238659382,-0.9512104,0.6756986,0.04516268,-0.4936704,0.1100145,0.8351218,26.32868,-45.60817,-27.11135,1001.645
1.241156578,-0.2696275,0.5565801,-0.01603752,-0.4843262,0.1062866,0.8317993,26.32868,-45.60817,-27.11135,1001.645
1.243654251,0.2880313,0.4374615,0.1675631,-0.4907123,0.1086538,0.8375181,26.32868,-45.60817,-27.11135,1001.645
1.246151447,0.5358797,0.139665,0.3511637,-0.4938058,0.1178308,0.8388874,26.70238,-45.97641,-27.48838,1001.645
1.248648643,0.2880313,0.1992243,0.2287633,-0.4913689,0.1184266,0.8431807,26.70238,-45.97641,-27.48838,1001.647
1.251145840,0.1641071,0.2587835,0.2899635,-0.4962493,0.1183602,0.84605,26.70238,-45.97641,-27.48838,1001.647
1.253643513,-0.2076654,-0.2176908,0.3511637,-0.4956079,0.1095903,0.8427686,26.70238,-45.97641,-27.48838,1001.647
1.256140709,0.102145,-0.2772501,0.4123639,-0.5038962,0.1083767,0.8380055,26.70238,-45.97641,-27.48838,1001.647
1.258637905,0.5358797,-0.2176908,0.3511637,-0.5029744,0.1112708,0.8351183,26.70238,-45.97641,-27.48838,1001.647
1.261135101,0.6598039,-0.3963687,0.5347643,-0.5035955,0.1185011,0.8322011,26.70238,-45.97641,-27.48838,1001.647
1.263632774,0.6598039,-0.6941652,0.6571647,-0.502174,0.1209591,0.8321827,26.70238,-45.97641,-27.48838,1001.647
1.266129970,0.3499934,-0.9324024,0.5959645,-0.5020741,0.1156852,0.8369969,26.70238,-45.97641,-27.48838,1001.647
1.268626690,0.4119555,-1.230199,0.4123639,-0.5059211,0.1121848,0.8355912,26.70238,-45.97641,-27.48838,1001.647
1.271123886,0.6598039,-1.647114,0.5959645,-0.5044284,0.1107862,0.8375109,26.70238,-45.97641,-27.48838,1001.647
1.273621082,0.5978417,-1.825792,0.7183649,-0.4981768,0.1162481,0.8365129,26.70238,-45.97641,-27.48838,1001.647
1.276118278,0.5978417,-2.183148,0.7183649,-0.4908929,0.1188708,0.839356,26.70238,-45.97641,-27.48838,1001.647
1.278615951,0.1641071,-2.302266,0.8407653,-0.4854707,0.1160553,0.8379399,26.70238,-45.97641,-27.48838,1001.647
1.281113148,0.102145,-2.302266,0.9631656,-0.4893219,0.1131046,0.8413069,26.70238,-45.97641,-27.48838,1001.647
1.283610344,0.4739175,-2.480944,0.8407653,-0.4918755,0.1193738,0.8422189,26.70238,-45.97641,-27.48838,1001.647
1.286107540,0.5978417,-2.719182,1.024366,-0.4913788,0.1195067,0.8512933,26.70238,-45.97641,-27.48838,1001.647
1.288605213,-0.1457033,-2.659622,1.085566,-0.4840485,0.1191339,0.847948,26.70238,-45.97641,-27.48838,1001.646
1.291102409,-0.6414,-2.540504,0.9631656,-0.4795518,0.1133726,0.8455981,26.70238,-45.97641,-27.48838,1001.646
1.293599605,-0.9512104,-2.600063,1.024366,-0.4809274,0.1079126,0.8389506,26.70238,-45.97641,-27.48838,1001.646
1.296096802,-1.446907,-2.242707,0.9631656,-0.481222,0.1250333,0.8488595,26.70238,-45.97641,-27.48838,1001.646
1.298594475,-2.99596,-1.885351,0.8407653,-0.480656,0.1206697,0.8484127,26.70238,-45.97641,-27.48838,1001.646
1.301091671,-2.686149,-1.647114,0.8407653,-0.4809715,0.1097185,0.8289068,26.70238,-45.97641,-27.48838,1001.646
1.303588867,-1.942604,-1.766233,0.9631656,-0.4801396,0.1186424,0.8412619,26.70238,-45.97641,-27.48838,1001.646
1.306086063,-1.880642,-1.408877,0.7795651,-0.473629,0.1379029,0.8549729,26.70238,-45.97641,-27.48838,1001.646
1.308583736,-3.491656,-0.7537246,0.5959645,-0.4656222,0.1280472,0.8674578,26.70238,-45.97641,-27.48838,1001.646
1.311080932,-3.367732,-0.6346059,0.7795651,-0.4701474,0.105627,0.8322733,26.70238,-45.97641,-27.48838,1001.646
1.313578129,-0.8272863,-1.587555,1.085566,-0.4628336,0.1062377,0.8298763,26.70238,-45.97641,-27.48838,1001.646
1.316075325,0.8456901,-2.123589,1.146766,-0.44946,0.1248099,0.8536192,26.70238,-45.97641,-27.48838,1001.646
1.318572998,0.4739175,-1.468436,1.146766,-0.4634023,0.1395536,0.8530445,26.70238,-45.97641,-27.48838,1001.646
1.321070194,-0.1457033,-0.6941652,1.024366,-0.4767292,0.1192141,0.8422112,26.70238,-45.97641,-27.48838,1001.646
1.323567390,0.2260692,-0.8728431,0.8407653,-0.4751806,0.1143475,0.8389013,26.70238,-45.97641,-27.48838,1001.646
1.326064586,0.8456901,-1.11108,1.146766,-0.4669512,0.118984,0.8455507,26.70238,-45.97641,-27.48838,1001.646
1.328562260,0.6598039,-0.8728431,1.269167,-0.4618194,0.1327394,0.8492708,26.70238,-45.97641,-27.48838,1001.642
1.331059456,0.7837281,-0.3963687,0.9631656,-0.4661877,0.1311954,0.8497621,26.70238,-45.97641,-27.48838,1001.642
1.333556652,0.9076522,0.08010566,0.9631656,-0.4713832,0.1214061,0.8522233,26.70238,-45.97641,-27.48838,1001.642
1.336053848,0.7217659,0.1992243,1.146766,-0.4742915,0.1198228,0.8474597,26.70238,-45.97641,-27.48838,1001.642
1.338551521,0.4119555,0.02054636,1.024366,-0.4869163,0.1156931,0.8494072,26.70238,-45.97641,-27.48838,1001.642
1.341048717,0.5358797,-0.03901294,0.9631656,-0.4927226,0.1126746,0.8508652,26.70238,-45.97641,-27.48838,1001.642
1.343545914,0.5358797,0.02054636,0.9631656,-0.4819664,0.1118771,0.8465656,26.70238,-45.97641,-27.48838,1001.642
1.348540783,1.465311,0.02054636,1.146766,-0.4927397,0.1130375,0.841787,25.96085,-45.63187,-27.93974,1001.642
1.348540783,1.465311,0.02054636,1.146766,-0.4927397,0.1130375,0.841787,25.96085,-45.63187,-27.93974,1001.642
1.351042747,1.279425,-0.09857224,1.330367,-0.4899457,0.1209104,0.8450729,25.96085,-45.63187,-27.93974,1001.642
1.353535175,1.093539,-0.1581315,1.146766,-0.4845651,0.120547,0.8455499,25.96085,-45.63187,-27.93974,1001.642
1.356032371,0.7217659,-0.09857224,1.207966,-0.4884364,0.1185283,0.8460442,25.96085,-45.63187,-27.93974,1001.642
1.358530044,0.4739175,-0.2772501,1.269167,-0.4943162,0.1193342,0.8431759,25.96085,-45.63187,-27.93974,1001.642
1.361027241,0.6598039,-0.5154874,1.207966,-0.4865466,0.1219287,0.8431529,25.96085,-45.63187,-27.93974,1001.642
1.363524437,0.7837281,-0.2772501,1.024366,-0.4791191,0.1162434,0.8417561,25.96085,-45.63187,-27.93974,1001.642
1.366021633,1.093539,-0.3368095,1.146766,-0.4875281,0.1218368,0.8378998,25.96085,-45.63187,-27.93974,1001.642
1.371016502,0.7217659,-0.455928,1.024366,-0.4860699,0.1229936,0.8493546,25.96085,-45.63187,-27.93974,1001.645
1.371016502,0.7217659,-0.455928,1.024366,-0.4860699,0.1229936,0.8493546,25.96085,-45.63187,-27.93974,1001.645
1.373513698,0.8456901,-0.5750467,1.085566,-0.4870062,0.120501,0.8460293,25.96085,-45.63187,-27.93974,1001.645
1.376010895,0.6598039,-0.6346059,1.146766,-0.4907851,0.1130988,0.8432184,25.96085,-45.63187,-27.93974,1001.645
1.381004810,0.8456901,-0.8728431,1.269167,-0.4914068,0.1203227,0.8398235,25.96085,-45.63187,-27.93974,1001.645
1.381004810,0.8456901,-0.8728431,1.269167,-0.4914068,0.1203227,0.8398235,25.96085,-45.63187,-27.93974,1001.645
1.383502483,0.7837281,-0.8132839,1.085566,-0.4845555,0.1200746,0.8465086,25.96085,-45.63187,-27.93974,1001.645
1.385999679,-0.2076654,-0.455928,0.9019655,-0.4860234,0.1206122,0.8527153,25.96085,-45.63187,-27.93974,1001.645
1.390994072,0.5358797,-0.5750467,1.085566,-0.4818915,0.1068502,0.8337045,25.96085,-45.63187,-27.93974,1001.645
1.390994072,0.5358797,-0.5750467,1.085566,-0.4818915,0.1068502,0.8337045,25.96085,-45.63187,-27.93974,1001.645
1.395988941,1.031576,-1.11108,1.024366,-0.4852425,0.131853,0.8569336,25.96734,-45.99226,-27.48685,1001.645
1.398486137,0.2260692,-0.7537246,1.024366,-0.484668,0.1263899,0.8469413,25.96734,-45.99226,-27.48685,1001.645
1.398486137,0.2260692,-0.7537246,1.024366,-0.484668,0.1263899,0.8469413,25.96734,-45.99226,-27.48685,1001.645
1.403481006,-0.8272863,-0.3368095,0.6571647,-0.4806248,0.118677,0.8446056,25.96734,-45.99226,-27.48685,1001.645
1.405978203,-0.5174758,-0.3368095,0.7795651,-0.4804142,0.1348312,0.8540435,25.96734,-45.99226,-27.48685,1001.645
1.408475399,-2.872036,-0.2772501,0.3511637,-0.4760972,0.1417436,0.8917271,25.96734,-45.99226,-27.48685,1001.641
1.410972595,-5.474443,0.6161394,0.3511637,-0.4859456,0.1150162,0.8336486,25.96734,-45.99226,-27.48685,1001.641
1.410972595,-5.474443,0.6161394,0.3511637,-0.4859456,0.1150162,0.8336486,25.96734,-45.99226,-27.48685,1001.641
1.415967464,2.270818,-1.468436,0.9019655,-0.4511499,0.10964,0.8475188,25.96734,-45.99226,-27.48685,1001.641
1.418464661,2.084932,-1.468436,1.207966,-0.4658829,0.1432139,0.8764254,25.96734,-45.99226,-27.48685,1001.641
1.420961857,-0.1457033,-0.5154874,1.207966,-0.4907425,0.1384285,0.8492472,25.96734,-45.99226,-27.48685,1001.641
1.423459530,-0.4555138,-0.3368095,0.7183649,-0.4780189,0.1088883,0.8346429,25.96734,-45.99226,-27.48685,1001.641
1.425956726,0.5358797,-0.5750467,0.6571647,-0.4725173,0.1017244,0.8346909,25.96734,-45.99226,-27.48685,1001.641
1.428453922,1.279425,-0.8728431,1.024366,-0.4723391,0.1198519,0.846503,25.96734,-45.99226,-27.48685,1001.641
1.430951118,1.341387,-0.6346059,0.9019655,-0.4686896,0.1345464,0.8502173,25.96734,-45.99226,-27.48685,1001.641
1.433448791,0.7837281,-0.3963687,0.7183649,-0.4711089,0.1335942,0.8554799,25.96734,-45.99226,-27.48685,1001.641
1.435945988,0.2260692,-0.2176908,0.7183649,-0.4753852,0.1266604,0.8521882,25.96734,-45.99226,-27.48685,1001.641
1.438443184,0.4119555,-0.2176908,0.4735641,-0.4729421,0.1261245,0.844548,25.96734,-45.99226,-27.48685,1001.641
1.440940380,0.4739175,-0.2772501,0.4735641,-0.4709492,0.1242962,0.8498142,25.96734,-45.99226,-27.48685,1001.641
1.443438053,0.3499934,0.02054636,0.4735641,-0.4821792,0.1234598,0.8417065,25.96734,-45.99226,-27.48685,1001.641
1.445935249,0.4119555,0.1992243,0.3511637,-0.4840825,0.1204738,0.8393406,25.23227,-46.00933,-27.5491,1001.641
1.448432445,0.4119555,0.139665,0.2287633,-0.4806252,0.1186706,0.844128,25.23227,-46.00933,-27.5491,1001.641
1.450929642,0.4119555,0.08010566,0.3511637,-0.4815992,0.1186882,0.8469945,25.23227,-46.00933,-27.5491,1001.64
1.453427315,0.102145,0.08010566,0.1675631,-0.4865426,0.1219867,0.8474514,25.23227,-46.00933,-27.5491,1001.64
1.455924511,-0.1457033,0.08010566,0.04516268,-0.4835809,0.1206776,0.8536687,25.23227,-46.00933,-27.5491,1001.64
1.458421707,-0.7033621,0.08010566,0.1063629,-0.4796624,0.1197137,0.8479413,25.23227,-46.00933,-27.5491,1001.64
1.460918903,-0.8272863,-0.09857224,-0.01603752,-0.4752318,0.1172722,0.8398358,25.23227,-46.00933,-27.5491,1001.64
1.463416576,-0.4555138,0.02054636,0.1675631,-0.4849679,0.1156642,0.844152,25.23227,-46.00933,-27.5491,1001.64
1.465913772,-0.2696275,0.02054636,0.4123639,-0.4869615,0.1180938,0.8474795,25.23227,-46.00933,-27.5491,1001.64
1.468410969,-0.08374125,-0.03901294,0.1675631,-0.4826116,0.1199813,0.8364772,25.23227,-46.00933,-27.5491,1001.64
1.470908165,0.2260692,-0.2772501,0.2287633,-0.4840608,0.1195676,0.8441236,25.23227,-46.00933,-27.5491,1001.64
1.473405838,0.04018293,-0.2176908,0.2287633,-0.487423,0.1160261,0.8388966,25.23227,-46.00933,-27.5491,1001.64
1.475903034,0.2880313,-0.1581315,0.1675631,-0.4807105,0.1229351,0.8364549,25.23227,-46.00933,-27.5491,1001.64
1.478400230,0.2880313,-0.2176908,0.4123639,-0.4767649,0.1211424,0.8412421,25.23227,-46.00933,-27.5491,1001.64
1.480897426,0.1641071,-0.455928,0.4123639,-0.4825885,0.1190945,0.8426932,25.23227,-46.00933,-27.5491,1001.64
1.483395100,0.1641071,-0.3963687,0.2287633,-0.4874406,0.1176044,0.8479609,25.23227,-46.00933,-27.5491,1001.64
1.485891342,0.2260692,-0.3368095,0.2899635,-0.4796551,0.1192091,0.8465119,25.23227,-46.00933,-27.5491,1001.64
1.488389015,0.04018293,-0.5154874,0.3511637,-0.4791169,0.1162756,0.8441442,25.23227,-46.00933,-27.5491,1001.64
1.490886211,0.04018293,-0.455928,0.2287633,-0.4820623,0.1172089,0.8460499,25.23227,-46.00933,-27.5491,1001.638
1.493383407,0.2880313,-0.455928,0.1063629,-0.4801561,0.1196259,0.8422102,25.23227,-46.00933,-27.5491,1001.638
1.495880604,0.1641071,-0.6346059,0.2899635,-0.4787132,0.1211713,0.8464974,25.59965,-46.00869,-27.93255,1001.638
1.498378277,0.04018293,-0.455928,0.2899635,-0.4806842,0.1220934,0.8460142,25.59965,-46.00869,-27.93255,1001.638
1.500875473,-0.6414,-0.455928,0.04516268,-0.4786738,0.1186868,0.8422161,25.59965,-46.00869,-27.93255,1001.638
1.503372669,-0.6414,-0.5750467,0.1063629,-0.4761814,0.1158082,0.8408022,25.59965,-46.00869,-27.93255,1001.638
1.505869865,0.102145,-0.6346059,0.2899635,-0.4854576,0.1156344,0.8427195,25.59965,-46.00869,-27.93255,1001.638
1.508367538,0.1641071,-0.5154874,0.4123639,-0.488381,0.1150539,0.840337,25.59965,-46.00869,-27.93255,1001.638
1.510864735,0.2260692,-0.6346059,0.2899635,-0.4879508,0.1185001,0.8431782,25.59965,-46.00869,-27.93255,1001.638
1.513361931,0.3499934,-0.455928,0.4735641,-0.4801447,0.1191792,0.8450794,25.59965,-46.00869,-27.93255,1001.638
1.515859127,0.102145,-0.5154874,0.4735641,-0.4773702,0.1279905,0.8459702,25.59965,-46.00869,-27.93255,1001.638
1.518356800,-0.1457033,-0.5154874,0.2287633,-0.4763936,0.1280115,0.8459695,25.59965,-46.00869,-27.93255,1001.638
1.520853996,-0.9512104,-0.3368095,0.1675631,-0.4807181,0.1240475,0.8469557,25.59965,-46.00869,-27.93255,1001.638
1.523351192,-1.81868,-0.1581315,-0.07723773,-0.4772266,0.1196825,0.8417305,25.59965,-46.00869,-27.93255,1001.638
1.525848389,-0.8272863,-0.03901294,0.1675631,-0.476556,0.1082798,0.8231825,25.59965,-46.00869,-27.93255,1001.638
1.528346062,0.7217659,-0.3368095,0.4735641,-0.4771828,0.1172624,0.8422254,25.59965,-46.00869,-27.93255,1001.638
1.530843258,0.7217659,-0.3963687,0.3511637,-0.4755375,0.1354537,0.8564245,25.59965,-46.00869,-27.93255,1001.636
1.533340454,0.04018293,-0.2772501,0.3511637,-0.4769339,0.1315269,0.8554981,25.59965,-46.00869,-27.93255,1001.636
1.535837650,-0.3935517,-0.3368095,0.1675631,-0.482087,0.1186842,0.8474724,25.59965,-46.00869,-27.93255,1001.636
1.538335323,-0.2076654,-0.3963687,0.2287633,-0.4801274,0.1182086,0.8450863,25.59965,-46.00869,-27.93255,1001.636
1.540832519,-0.02177916,-0.3963687,0.2899635,-0.4699917,0.1252621,0.847896,25.59965,-46.00869,-27.93255,1001.636
1.543329716,-0.1457033,-0.3368095,0.4123639,-0.472955,0.1271595,0.8493172,25.59965,-46.00869,-27.93255,1001.636
1.545826912,-0.3315896,-0.03901294,0.3511637,-0.4772696,0.1221154,0.8421908,25.96717,-46.00076,-27.93332,1001.636
1.548324585,-0.3315896,0.02054636,0.04516268,-0.4732772,0.1173336,0.8412672,25.96717,-46.00076,-27.93332,1001.636
1.550821781,-0.2076654,0.02054636,0.2287633,-0.4717723,0.1155012,0.8470114,25.96717,-46.00076,-27.93332,1001.636
1.553318977,-0.02177916,0.139665,0.4123639,-0.4733716,0.1232989,0.8517333,25.96717,-46.00076,-27.93332,1001.636
1.555816173,0.102145,0.3183429,0.1675631,-0.4743267,0.1217575,0.8469683,25.96717,-46.00076,-27.93332,1001.636
1.558313846,-0.08374125,0.3183429,0.1675631,-0.475332,0.1231538,0.8440929,25.96717,-46.00076,-27.93332,1001.636
1.560811043,-0.08374125,0.3183429,0.1063629,-0.4808033,0.1283121,0.8392827,25.96717,-46.00076,-27.93332,1001.636
1.563308239,-0.1457033,0.1992243,-0.07723773,-0.4845644,0.1199458,0.8369562,25.96717,-46.00076,-27.93332,1001.636
1.565805435,0.102145,0.3183429,-0.1384379,-0.4885008,0.1218738,0.8421991,25.96717,-46.00076,-27.93332,1001.636
1.568303108,0.102145,0.2587835,0.1063629,-0.4835629,0.1191057,0.845082,25.96717,-46.00076,-27.93332,1001.636
1.570800304,0.102145,0.02054636,0.1675631,-0.4850748,0.1214491,0.8412448,25.96717,-46.00076,-27.93332,1001.636
1.573297501,0.1641071,0.1992243,0.1063629,-0.4777501,0.1216067,0.8412394,25.96717,-46.00076,-27.93332,1001.636
1.575794697,0.2260692,0.1992243,0.1063629,-0.4816252,0.1201441,0.8469841,25.96717,-46.00076,-27.93332,1001.636
1.578294277,0.3499934,0.2587835,0.04516268,-0.482625,0.1210099,0.8407689,25.96717,-46.00076,-27.93332,1001.636
1.580789566,0.102145,0.139665,0.1675631,-0.4754324,0.1284212,0.838801,25.96717,-46.00076,-27.93332,1001.636
1.583286762,-0.02177916,0.08010566,0.04516268,-0.4700552,0.1286205,0.8450062,25.96717,-46.00076,-27.93332,1001.636
1.585783958,-0.3935517,0.3779022,-0.07723773,-0.465083,0.1239047,0.8474252,25.96717,-46.00076,-27.93332,1001.636
1.588281631,-0.2076654,0.5565801,0.04516268,-0.4753627,0.1251529,0.8483776,25.96717,-46.00076,-27.93332,1001.636
1.590778828,-0.1457033,0.5565801,0.1063629,-0.4752647,0.1192392,0.8417325,25.96717,-46.00076,-27.93332,1001.636
1.593276024,-0.1457033,0.6756986,0.04516268,-0.4776477,0.1157574,0.8393704,25.96717,-46.00076,-27.93332,1001.636
1.595772743,0.04018293,0.8543766,0.04516268,-0.4737702,0.1178664,0.8455627,25.96102,-45.62337,-27.49328,1001.636
1.598269939,0.04018293,0.8543766,-0.07723773,-0.4733266,0.120284,0.8441122,25.96102,-45.62337,-27.49328,1001.636
1.600767136,0.04018293,0.735258,-0.01603752,-0.4744647,0.1295352,0.8478681,25.96102,-45.62337,-27.49328,1001.636
1.603264809,-0.08374125,0.8543766,-0.01603752,-0.472507,0.1296416,0.8526429,25.96102,-45.62337,-27.49328,1001.636
1.605762005,-0.3315896,1.033054,-0.01603752,-0.4797519,0.124528,0.845041,25.96102,-45.62337,-27.49328,1001.636
1.608259201,-0.2076654,0.9734952,-0.1384379,-0.4836419,0.1234605,0.8440956,25.96102,-45.62337,-27.49328,1001.636
1.610756397,-0.2696275,0.9734952,-0.1996381,-0.4821162,0.1200949,0.8441187,25.96102,-45.62337,-27.49328,1001.635
1.613254070,-0.2076654,1.152173,-0.1384379,-0.4829335,0.1113837,0.847525,25.96102,-45.62337,-27.49328,1001.635
1.615751266,-0.1457033,1.152173,-0.07723773,-0.4833728,0.1084163,0.8442028,25.96102,-45.62337,-27.49328,1001.635
1.618248463,0.3499934,1.033054,-0.01603752,-0.4854189,0.1137512,0.8470319,25.96102,-45.62337,-27.49328,1001.635
1.620745659,0.6598039,1.033054,-0.01603752,-0.4830733,0.1191355,0.8465145,25.96102,-45.62337,-27.49328,1001.635
1.623243332,0.5358797,1.033054,-0.07723773,-0.4821614,0.1224956,0.842191,25.96102,-45.62337,-27.49328,1001.635
1.625740528,0.3499934,1.092614,-0.01603752,-0.4826106,0.1206084,0.8469813,25.96102,-45.62337,-27.49328,1001.635
1.628237724,0.2880313,1.092614,0.1063629,-0.4874315,0.1171256,0.848442,25.96102,-45.62337,-27.49328,1001.635
1.630734920,0.2260692,1.152173,0.1675631,-0.4908085,0.1145934,0.8460737,25.96102,-45.62337,-27.49328,1001.635
1.633232593,0.2880313,1.092614,0.1063629,-0.4907553,0.1110868,0.8379784,25.96102,-45.62337,-27.49328,1001.635
1.635729790,0.6598039,0.9139358,0.1063629,-0.4952785,0.1182975,0.8398403,25.96102,-45.62337,-27.49328,1001.635
1.638226986,0.9076522,0.8543766,0.1675631,-0.4947524,0.1164119,0.8431971,25.96102,-45.62337,-27.49328,1001.635
1.640724182,1.031576,0.6756986,0.4123639,-0.4880532,0.1243494,0.8450472,25.96102,-45.62337,-27.49328,1001.635
1.643221855,0.7217659,0.4970208,0.2287633,-0.4861828,0.1293024,0.8493097,25.96102,-45.62337,-27.49328,1001.635
1.645719051,0.5358797,0.3183429,0.1063629,-0.4870766,0.1243705,0.8450465,26.34119,-46.35323,-27.48119,1001.635
1.648216247,0.4739175,0.2587835,0.2287633,-0.4855722,0.1219175,0.8407641,26.34119,-46.35323,-27.48119,1001.635
1.650713444,0.4119555,0.2587835,0.2899635,-0.4795823,0.1147641,0.8408116,26.34119,-46.35323,-27.48119,1001.637
1.653211117,0.3499934,0.4970208,0.3511637,-0.4752342,0.1178477,0.8465191,26.34119,-46.35323,-27.48119,1001.637
1.655708313,0.3499934,0.4970208,0.2899635,-0.473346,0.1218365,0.8512661,26.34119,-46.35323,-27.48119,1001.637
1.658205509,0.4119555,0.3779022,0.2899635,-0.4787368,0.1220517,0.8398038,26.34119,-46.35323,-27.48119,1001.637
1.660702705,0.3499934,0.3183429,0.3511637,-0.4779394,0.132309,0.8430738,26.34119,-46.35323,-27.48119,1001.637
1.663200378,0.4119555,0.3779022,0.1675631,-0.4783213,0.1265071,0.8455037,26.34119,-46.35323,-27.48119,1001.637
1.665697575,0.1641071,0.3779022,0.1063629,-0.4763747,0.1264525,0.838338,26.34119,-46.35323,-27.48119,1001.637
1.668194771,0.04018293,0.6161394,0.04516268,-0.479778,0.1259839,0.8450307,26.34119,-46.35323,-27.48119,1001.637
1.670691967,0.102145,0.4970208,0.04516268,-0.4763081,0.1231392,0.8445713,26.34119,-46.35323,-27.48119,1001.637
1.673189640,-0.02177916,0.5565801,0.1675631,-0.4738176,0.1202348,0.8412468,26.34119,-46.35323,-27.48119,1001.637
1.675686836,-0.02177916,0.735258,-0.01603752,-0.4791369,0.1172075,0.8412716,26.34119,-46.35323,-27.48119,1001.637
1.678184032,0.2260692,0.6756986,0.1063629,-0.4815199,0.1137257,0.8389095,26.34119,-46.35323,-27.48119,1001.637
1.680681229,0.4739175,0.5565801,0.1675631,-0.4807152,0.1234784,0.8407501,26.34119,-46.35323,-27.48119,1001.637
1.683178425,0.4119555,0.6161394,0.1675631,-0.4880211,0.1223696,0.8421953,26.34119,-46.35323,-27.48119,1001.637
1.685676098,0.102145,0.4374615,0.1675631,-0.4879733,0.1200075,0.8469887,26.34119,-46.35323,-27.48119,1001.637
1.688173294,0.1641071,0.2587835,0.1063629,-0.4860396,0.1209879,0.8445923,26.34119,-46.35323,-27.48119,1001.637
1.690670490,0.1641071,0.2587835,0.2287633,-0.4860363,0.1204253,0.8388643,26.34119,-46.35323,-27.48119,1001.635
1.693167686,0.2260692,0.3183429,0.2899635,-0.4801525,0.1196774,0.8460311,26.34119,-46.35323,-27.48119,1001.635
1.695665359,0.1641071,0.3779022,0.1063629,-0.4820672,0.117138,0.8407962,25.96116,-45.61609,-27.11059,1001.635
1.698162556,0.2880313,0.4374615,0.2899635,-0.4844787,0.1156876,0.8451069,25.96116,-45.61609,-27.11059,1001.635
1.700659752,0.2880313,0.5565801,0.2287633,-0.4864845,0.118551,0.84461,25.96116,-45.61609,-27.11059,1001.635
1.703156471,0.3499934,0.3183429,0.2287633,-0.4820463,0.116219,0.844624,25.96116,-45.61609,-27.11059,1001.635
1.705654621,0.5358797,0.4970208,0.2899635,-0.4825919,0.1196571,0.8484211,25.96116,-45.61609,-27.11059,1001.635
1.708151340,0.2260692,0.4374615,0.2287633,-0.4855843,0.1229654,0.8464886,25.96116,-45.61609,-27.11059,1001.635
1.710648537,0.2260692,0.3183429,0.2899635,-0.4870915,0.1247655,0.8383563,25.96116,-45.61609,-27.11059,1001.635
1.713145733,0.2880313,0.2587835,0.2287633,-0.4851055,0.1234483,0.8455295,25.96116,-45.61609,-27.11059,1001.635
1.715642929,0.04018293,0.1992243,0.2899635,-0.4806255,0.1192783,0.8531992,25.96116,-45.61609,-27.11059,1001.635
1.718140602,-0.02177916,0.139665,0.2899635,-0.4853959,0.1122502,0.8436989,25.96116,-45.61609,-27.11059,1001.635
1.720637798,0.2880313,0.1992243,0.1675631,-0.4830891,0.1195178,0.8388691,25.96116,-45.61609,-27.11059,1001.635
1.723134994,0.5358797,0.02054636,0.3511637,-0.4713995,0.1217819,0.8441004,25.96116,-45.61609,-27.11059,1001.635
1.725632191,0.1641071,0.1992243,0.4123639,-0.4740099,0.130892,0.8397379,25.96116,-45.61609,-27.11059,1001.635
1.728129864,0.1641071,0.3779022,-0.01603752,-0.4709198,0.1222777,0.8440965,25.96116,-45.61609,-27.11059,1001.635
1.730627060,-0.08374125,0.5565801,0.04516268,-0.4620532,0.1186939,0.8522372,25.96116,-45.61609,-27.11059,1001.634
1.733124256,-0.02177916,0.7948173,0.2899635,-0.4671543,0.1307084,0.8511992,25.96116,-45.61609,-27.11059,1001.634
1.735621452,0.102145,0.9734952,0.1675631,-0.4775933,0.1406469,0.848746,25.96116,-45.61609,-27.11059,1001.634
1.738119125,-0.3935517,0.8543766,0.1063629,-0.4773516,0.1270392,0.84741,25.96116,-45.61609,-27.11059,1001.634
1.740616322,-0.7033621,0.8543766,0.04516268,-0.4887484,0.1088505,0.8489795,25.96116,-45.61609,-27.11059,1001.634
1.743113518,-0.3935517,0.9734952,0.1675631,-0.4911899,0.1075761,0.8303611,25.96116,-45.61609,-27.11059,1001.634
1.745610714,0.1641071,0.735258,0.1675631,-0.4879952,0.1202995,0.8326567,25.59979,-46.0014,-27.54987,1001.634
1.748108387,0.2260692,0.6161394,0.1675631,-0.484731,0.1297548,0.844529,25.59979,-46.0014,-27.54987,1001.634
1.750605583,0.04018293,0.8543766,0.3511637,-0.4885041,0.1224364,0.847927,25.59979,-46.0014,-27.54987,1001.634
1.753102779,-0.3315896,0.7948173,0.1063629,-0.4889069,0.1175536,0.8465292,25.59979,-46.0014,-27.54987,1001.634
1.755599976,-0.1457033,0.5565801,0.1675631,-0.4859922,0.1186194,0.8489081,25.59979,-46.0014,-27.54987,1001.634
1.758097172,0.2260692,0.3183429,0.1063629,-0.4871079,0.125749,0.8393047,25.59979,-46.0014,-27.54987,1001.634
1.760594845,-0.2076654,0.4374615,0.1063629,-0.4880776,0.1252169,0.8373984,25.59979,-46.0014,-27.54987,1001.634
1.763092041,-0.5174758,0.3779022,0.04516268,-0.488929,0.1190675,0.8508174,25.59979,-46.0014,-27.54987,1001.634
1.765589237,-0.5174758,0.3779022,0.1063629,-0.487409,0.1156182,0.8446315,25.59979,-46.0014,-27.54987,1001.634
1.768086433,-0.579438,0.08010566,0.1675631,-0.4933219,0.1177768,0.8341109,25.59979,-46.0014,-27.54987,1001.634
1.770584106,-0.579438,0.139665,0.04516268,-0.4894718,0.1213224,0.83886,25.59979,-46.0014,-27.54987,1001.634
1.773081303,-0.4555138,0.139665,-0.07723773,-0.4899457,0.1209104,0.8450729,25.59979,-46.0014,-27.54987,1001.638
1.775578499,-0.2076654,0.139665,-0.1384379,-0.4899501,0.1208459,0.8402966,25.59979,-46.0014,-27.54987,1001.638
1.778075695,0.2880313,0.139665,-0.01603752,-0.4923681,0.119913,0.846992,25.59979,-46.0014,-27.54987,1001.638
1.780573368,0.04018293,-0.2772501,0.1675631,-0.4914814,0.1247419,0.8436134,25.59979,-46.0014,-27.54987,1001.638
1.783070564,-0.5174758,-0.3368095,0.1063629,-0.4895146,0.1243695,0.8488692,25.59979,-46.0014,-27.54987,1001.638
1.785567760,-0.7653242,-0.2772501,0.1063629,-0.4860118,0.1195578,0.8465132,25.59979,-46.0014,-27.54987,1001.638
1.788064957,-0.5174758,-0.3963687,0.2287633,-0.4897217,0.1082669,0.8432522,25.59979,-46.0014,-27.54987,1001.638
1.790562630,0.102145,-0.5750467,0.1675631,-0.4844184,0.1122841,0.8446535,25.59979,-46.0014,-27.54987,1001.638
1.793059826,0.5978417,-0.6346059,0.1675631,-0.4812407,0.1259846,0.8474198,25.59979,-46.0014,-27.54987,1001.638
1.795557022,0.2880313,-0.6346059,0.2287633,-0.4819013,0.1356994,0.8487839,26.33517,-45.96856,-26.65846,1001.638
1.798054218,-0.5174758,-0.6941652,0.2287633,-0.4798504,0.1304353,0.8512086,26.33517,-45.96856,-26.65846,1001.638
1.800551891,-0.8272863,-0.5154874,0.04516268,-0.4849699,0.1162462,0.8513128,26.33517,-45.96856,-26.65846,1001.638
1.803049087,-0.4555138,-0.5154874,0.04516268,-0.4791186,0.1162498,0.8422337,26.33517,-45.96856,-26.65846,1001.638
1.805546284,0.102145,-0.5750467,0.04516268,-0.4757887,0.121157,0.8407638,26.33517,-45.96856,-26.65846,1001.638
1.808043480,0.04018293,-0.3963687,0.1063629,-0.4792055,0.1211028,0.8421991,26.33517,-45.96856,-26.65846,1001.638
1.810541153,-0.02177916,-0.2772501,0.1675631,-0.4811556,0.1211059,0.8455439,26.33517,-45.96856,-26.65846,1001.638
1.813038349,-0.1457033,-0.3368095,-0.01603752,-0.4801329,0.118739,0.8484262,26.33517,-45.96856,-26.65846,1001.636
1.815535068,-0.08374125,-0.2176908,0.04516268,-0.480159,0.1201949,0.8484158,26.33517,-45.96856,-26.65846,1001.636
1.818032265,-0.2076654,-0.3368095,-0.01603752,-0.4832226,0.1273598,0.8445452,26.33517,-45.96856,-26.65846,1001.636
1.820529461,-0.5174758,-0.09857224,0.1063629,-0.4768764,0.1274706,0.84263,26.33517,-45.96856,-26.65846,1001.636
1.823027134,-0.7033621,-0.03901294,0.04516268,-0.4772888,0.1230602,0.8402734,26.33517,-45.96856,-26.65846,1001.636
1.825524330,-0.6414,-0.1581315,0.04516268,-0.4762144,0.1177752,0.8426988,26.33517,-45.96856,-26.65846,1001.636
1.828021526,-0.3315896,0.08010566,0.04516268,-0.4718626,0.1203026,0.8431559,26.33517,-45.96856,-26.65846,1001.636
1.830518722,-0.3315896,0.1992243,0.04516268,-0.4714362,0.124305,0.8512474,26.33517,-45.96856,-26.65846,1001.636
1.833015919,-0.4555138,0.139665,0.04516268,-0.476352,0.1255592,0.8440763,26.33517,-45.96856,-26.65846,1001.636
1.835513592,-0.579438,0.2587835,-0.07723773,-0.479755,0.1244829,0.8416977,26.33517,-45.96856,-26.65846,1001.636
1.838010788,-0.7033621,0.4374615,-0.07723773,-0.4796722,0.119572,0.8374337,26.33517,-45.96856,-26.65846,1001.636
1.840507984,-0.6414,0.4374615,-0.1384379,-0.4864845,0.118551,0.84461,26.33517,-45.96856,-26.65846,1001.636
1.843005180,-0.579438,0.2587835,-0.07723773,-0.4880227,0.122958,0.8498337,25.96102,-45.62337,-27.49328,1001.636
1.845502853,-0.4555138,0.5565801,-0.01603752,-0.4835598,0.1191508,0.8484253,25.96102,-45.62337,-27.49328,1001.636
1.848000050,-0.3935517,0.4970208,-0.07723773,-0.4796208,0.1172614,0.8460481,25.96102,-45.62337,-27.49328,1001.636
1.850497246,-0.3935517,0.3183429,0.04516268,-0.4880075,0.1219552,0.8474525,25.96102,-45.62337,-27.49328,1001.636
1.852994442,-0.5174758,0.2587835,0.04516268,-0.486998,0.1200092,0.8455551,25.96102,-45.62337,-27.49328,1001.64
1.855492115,-0.5174758,0.3183429,0.04516268,-0.4816245,0.1195428,0.8383904,25.96102,-45.62337,-27.49328,1001.64
1.857989311,-0.4555138,0.5565801,-0.07723773,-0.4836241,0.1224963,0.8445802,25.96102,-45.62337,-27.49328,1001.64
1.860486507,-0.4555138,0.1992243,-0.07723773,-0.4885106,0.1229539,0.8503117,25.96102,-45.62337,-27.49328,1001.64
1.862983704,-0.5174758,0.1992243,-0.01603752,-0.4860739,0.1229356,0.8450561,25.96102,-45.62337,-27.49328,1001.64
1.865481377,-0.5174758,0.3779022,-0.07723773,-0.4874257,0.1159875,0.8360309,25.96102,-45.62337,-27.49328,1001.64
1.867978573,-0.579438,0.2587835,-0.1384379,-0.4879178,0.1165331,0.8412816,25.96102,-45.62337,-27.49328,1001.64
1.870475769,-0.4555138,0.02054636,-0.07723773,-0.4844792,0.1156812,0.8446293,25.96102,-45.62337,-27.49328,1001.64
1.872972965,-0.4555138,0.02054636,-0.1384379,-0.487949,0.1185259,0.8450887,25.96102,-45.62337,-27.49328,1001.64
1.875470638,-0.1457033,0.02054636,-0.01603752,-0.485063,0.1210089,0.8445916,25.96102,-45.62337,-27.49328,1001.64
1.877967834,-0.2696275,-0.09857224,0.04516268,-0.4855818,0.1223899,0.8398054,25.96102,-45.62337,-27.49328,1001.64
1.880465031,-0.3315896,-0.1581315,-0.1384379,-0.4801743,0.1205836,0.8412481,25.96102,-45.62337,-27.49328,1001.64
1.882962227,-0.3315896,-0.1581315,-0.1384379,-0.4850565,0.1204914,0.842207,25.96102,-45.62337,-27.49328,1001.64
1.885459900,-0.3935517,-0.09857224,-0.07723773,-0.4806869,0.1220547,0.8431485,25.96102,-45.62337,-27.49328,1001.64
1.887957096,-0.3935517,-0.2772501,-0.1996381,-0.4777766,0.1230561,0.8407514,25.96102,-45.62337,-27.49328,1001.64
1.890454292,-0.3935517,-0.3368095,-0.07723773,-0.4772035,0.1187956,0.8479464,25.96102,-45.62337,-27.49328,1001.64
1.892951488,-0.4555138,-0.2176908,-0.07723773,-0.4757339,0.1182838,0.8436502,25.96734,-45.99226,-27.48685,1001.639
1.895449162,-0.7653242,0.02054636,-0.1996381,-0.4792674,0.1250947,0.850291,25.96734,-45.99226,-27.48685,1001.639
1.897946358,-0.8892484,-0.1581315,-0.3220385,-0.4773411,0.1265797,0.8493239,25.96734,-45.99226,-27.48685,1001.639
1.900443554,-0.7033621,-0.09857224,-0.2608383,-0.4812008,0.1235066,0.8436161,25.96734,-45.99226,-27.48685,1001.639
1.902940750,-0.6414,0.08010566,-0.1384379,-0.4811356,0.1201739,0.8484166,25.96734,-45.99226,-27.48685,1001.639
1.905438423,-0.7653242,0.08010566,-0.1996381,-0.4743549,0.1231812,0.8445698,25.96734,-45.99226,-27.48685,1001.639
1.907935619,-0.579438,0.02054636,-0.3832387,-0.478238,0.1216026,0.8417174,25.96734,-45.99226,-27.48685,1001.639
1.910432816,-0.7653242,0.08010566,-0.3220385,-0.4783004,0.1255881,0.8493316,25.96734,-45.99226,-27.48685,1001.639
1.912930012,-0.8892484,0.2587835,-0.2608383,-0.4791768,0.1196856,0.8450752,25.96734,-45.99226,-27.48685,1001.639
1.915427685,-0.8272863,0.1992243,-0.3220385,-0.4811227,0.1191389,0.8436473,25.96734,-45.99226,-27.48685,1001.639
1.917924881,-0.7653242,0.2587835,-0.3220385,-0.4830664,0.1186245,0.8446075,25.96734,-45.99226,-27.48685,1001.639
1.920422077,-0.8272863,0.3183429,-0.3832387,-0.4821349,0.1210462,0.842679,25.96734,-45.99226,-27.48685,1001.639
1.922919273,-0.7653242,0.4374615,-0.4444389,-0.4728695,0.1222872,0.8479189,25.96734,-45.99226,-27.48685,1001.639
1.925416946,-0.9512104,0.6161394,-0.3220385,-0.4748443,0.1237656,0.8526862,25.96734,-45.99226,-27.48685,1001.639
1.927914143,-1.013173,0.4374615,-0.3220385,-0.4748185,0.1216955,0.8431477,25.96734,-45.99226,-27.48685,1001.639
1.930410862,-0.8892484,0.6161394,-0.5056391,-0.4752768,0.1202871,0.847457,25.96734,-45.99226,-27.48685,1001.639
1.932908535,-0.6414,0.9139358,-0.3220385,-0.4840343,0.1181182,0.8446116,25.96734,-45.99226,-27.48685,1001.639
1.935405254,-0.7653242,0.9139358,-0.4444389,-0.4807208,0.1240088,0.8440899,25.96734,-45.99226,-27.48685,1001.639
1.937902451,-0.6414,0.9734952,-0.3832387,-0.4845644,0.1199458,0.8369562,25.96734,-45.99226,-27.48685,1001.639
1.940401077,-0.1457033,0.9734952,-0.3832387,-0.4831412,0.1224295,0.8388484,25.96734,-45.99226,-27.48685,1001.639
1.942897320,-0.3315896,0.9734952,-0.4444389,-0.4880046,0.1213861,0.841247,26.33486,-45.98434,-27.48762,1001.639
1.945394516,-0.9512104,0.9734952,-0.3220385,-0.4884329,0.1185798,0.8498653,26.33486,-45.98434,-27.48762,1001.639
1.947891712,-1.013173,0.7948173,-0.3220385,-0.4864571,0.1171144,0.8460531,26.33486,-45.98434,-27.48762,1001.639
1.950389385,-0.3315896,0.9139358,-0.3220385,-0.4868374,0.1107242,0.8408448,26.33486,-45.98434,-27.48762,1001.639
1.952891827,-0.02177916,0.9139358,-0.2608383,-0.4815815,0.1171099,0.8379301,26.33486,-45.98434,-27.48762,1001.639
1.955383778,-0.2696275,0.9139358,-0.3832387,-0.4812348,0.1248465,0.8350086,26.33486,-45.98434,-27.48762,1001.639
1.957880974,-0.3935517,1.152173,-0.3832387,-0.4811274,0.1196822,0.8479424,26.33486,-45.98434,-27.48762,1001.639
1.960378647,-0.4555138,1.092614,-0.3832387,-0.4840367,0.1186937,0.8512948,26.33486,-45.98434,-27.48762,1001.639
1.962875843,-0.2696275,0.9734952,-0.3220385,-0.4855106,0.1185333,0.8417435,26.33486,-45.98434,-27.48762,1001.639
1.965373039,-0.2696275,0.9139358,-0.1996381,-0.4894326,0.1194456,0.84365,26.33486,-45.98434,-27.48762,1001.639
1.967870235,-0.4555138,0.735258,-0.1384379,-0.4938478,0.1202766,0.8403029,26.33486,-45.98434,-27.48762,1001.639
1.970367908,-0.02177916,0.8543766,-0.1384379,-0.4859597,0.116646,0.8465339,26.33486,-45.98434,-27.48762,1001.639
1.972865105,-0.08374125,0.8543766,-0.1384379,-0.4898301,0.1146401,0.8479835,26.33486,-45.98434,-27.48762,1001.639
1.975362301,0.102145,0.8543766,0.04516268,-0.490391,0.1184669,0.8446129,26.33486,-45.98434,-27.48762,1001.639
1.977859497,0.2260692,0.8543766,-0.1384379,-0.4894153,0.118475,0.8436569,26.33486,-45.98434,-27.48762,1001.639
1.980357170,0.2260692,0.8543766,-0.07723773,-0.4869864,0.1189549,0.8393531,26.33486,-45.98434,-27.48762,1001.639
1.982854366,0.1641071,0.7948173,-0.07723773,-0.4884444,0.1184123,0.8374472,26.33486,-45.98434,-27.48762,1001.639
1.985351562,0.1641071,0.735258,-0.1384379,-0.4908085,0.1145934,0.8460737,26.33486,-45.98434,-27.48762,1001.639
1.987848759,0.1641071,0.6161394,-0.01603752,-0.4840334,0.1181311,0.8455668,26.33486,-45.98434,-27.48762,1001.639
1.990346432,0.2880313,0.5565801,0.04516268,-0.4811149,0.1186407,0.8426955,26.33486,-45.98434,-27.48762,1001.639
1.992843628,0.4739175,0.5565801,-0.01603752,-0.4859833,0.1175264,0.8398403,25.96116,-45.61609,-27.11059,1001.639
1.995340824,0.4119555,0.4374615,-0.07723773,-0.4830824,0.1196144,0.8460333,25.96116,-45.61609,-27.11059,1001.639
1.997838020,0.102145,0.2587835,-0.1996381,-0.4874685,0.1190346,0.84604,25.96116,-45.61609,-27.11059,1001.639
2.000335693,0.102145,0.1992243,-0.1384379,-0.4850634,0.1210025,0.8441139,25.96116,-45.61609,-27.11059,1001.639
2.002836227,0.4119555,0.2587835,-0.07723773,-0.4821327,0.1210784,0.8450671,25.96116,-45.61609,-27.11059,1001.639
2.005330086,0.2260692,0.3183429,-0.07723773,-0.4816383,0.120565,0.8422045,25.96116,-45.61609,-27.11059,1001.639
2.007827282,0.04018293,0.3779022,-0.01603752,-0.4821037,0.1190535,0.8388718,25.96116,-45.61609,-27.11059,1001.639
2.010324955,0.04018293,0.3779022,-0.2608383,-0.4816762,0.122461,0.8388473,25.96116,-45.61609,-27.11059,1001.639
2.012822151,0.1641071,0.3779022,-0.1384379,-0.479248,0.1235421,0.8431371,25.96116,-45.61609,-27.11059,1001.637
2.015319347,0.2880313,0.2587835,-0.01603752,-0.4812429,0.1259524,0.8450317,25.96116,-45.61609,-27.11059,1001.637
2.017816543,-0.02177916,0.139665,-0.1384379,-0.4763382,0.1245371,0.8402623,25.96116,-45.61609,-27.11059,1001.637
2.020314216,-0.2696275,0.1992243,-0.1384379,-0.4796482,0.118698,0.8446049,25.96116,-45.61609,-27.11059,1001.637
2.022811413,-0.1457033,0.2587835,-0.2608383,-0.4825885,0.1190945,0.8426932,25.96116,-45.61609,-27.11059,1001.637
2.025308609,-0.2076654,0.08010566,-0.1384379,-0.4849779,0.1161302,0.8427157,25.96116,-45.61609,-27.11059,1001.637
2.027805805,-0.08374125,0.1992243,-0.01603752,-0.4829595,0.1128396,0.8475146,25.96116,-45.61609,-27.11059,1001.637
2.030303478,-0.08374125,0.3779022,-0.01603752,-0.4864146,0.114675,0.8451152,25.96116,-45.61609,-27.11059,1001.637
2.032800674,0.102145,0.139665,-0.07723773,-0.490908,0.1198736,0.8417372,25.96116,-45.61609,-27.11059,1001.637
2.035297870,0.102145,-0.2176908,-0.1996381,-0.488894,0.1165186,0.8417599,25.96116,-45.61609,-27.11059,1001.637
2.037795067,0.102145,-0.1581315,-0.07723773,-0.4908862,0.1189675,0.8465202,25.96116,-45.61609,-27.11059,1001.637
2.040291786,0.04018293,-0.09857224,0.04516268,-0.4849809,0.1166993,0.8489212,25.96116,-45.61609,-27.11059,1001.637
2.042789936,-0.2076654,-0.2772501,0.1675631,-0.4878973,0.1156077,0.8446319,25.96748,-45.98498,-27.10417,1001.637
2.045286655,-0.1457033,-0.2176908,0.04516268,-0.4919289,0.1222662,0.8407654,25.96748,-45.98498,-27.10417,1001.637
2.047783851,0.1641071,-0.3963687,0.04516268,-0.4907622,0.1115978,0.8398854,25.96748,-45.98498,-27.10417,1001.637
2.050281048,0.04018293,-0.3963687,-0.1384379,-0.4931964,0.1110407,0.8384578,25.96748,-45.98498,-27.10417,1001.637
2.052778244,0.2880313,-0.3368095,-0.1384379,-0.4898263,0.114084,0.8427331,25.96748,-45.98498,-27.10417,1001.636
2.055275917,0.4739175,-0.5750467,0.04516268,-0.4874164,0.1161228,0.8460608,25.96748,-45.98498,-27.10417,1001.636
2.057773113,0.4119555,-0.7537246,0.04516268,-0.4919436,0.1232755,0.8436241,25.96748,-45.98498,-27.10417,1001.636
2.060270309,0.3499934,-0.5750467,0.2287633,-0.4885698,0.1257626,0.842649,25.96748,-45.98498,-27.10417,1001.636
2.062767505,0.2880313,-0.6941652,0.04516268,-0.4855553,0.1209404,0.8402933,25.96748,-45.98498,-27.10417,1001.636
2.065265178,0.3499934,-0.5154874,0.1063629,-0.4918399,0.1174455,0.843188,25.96748,-45.98498,-27.10417,1001.636
2.067762375,0.2260692,-0.9324024,0.1675631,-0.4961977,0.115442,0.8455932,25.96748,-45.98498,-27.10417,1001.636
2.070259571,0.5358797,-1.051521,0.1675631,-0.4932692,0.1154857,0.8441581,25.96748,-45.98498,-27.10417,1001.636
2.072756767,0.7217659,-1.11108,0.1063629,-0.4864598,0.1170757,0.8431875,25.96748,-45.98498,-27.10417,1001.636
2.075254440,0.5358797,-1.051521,0.1063629,-0.4851011,0.1235128,0.8503057,25.96748,-45.98498,-27.10417,1001.636
2.077751636,0.2880313,-0.8728431,0.1063629,-0.4860049,0.1190467,0.8446062,25.96748,-45.98498,-27.10417,1001.636
2.080248832,0.4119555,-1.17064,0.2899635,-0.4840238,0.1176587,0.8465255,25.96748,-45.98498,-27.10417,1001.636
2.082746029,0.3499934,-1.230199,-0.01603752,-0.480666,0.1211357,0.8469764,25.96748,-45.98498,-27.10417,1001.636
2.085243702,0.2260692,-1.11108,0.1063629,-0.4811131,0.1186665,0.844606,25.96748,-45.98498,-27.10417,1001.636
2.087740898,0.2880313,-1.289758,0.2899635,-0.4835725,0.1195781,0.8441232,25.96748,-45.98498,-27.10417,1001.636
2.090241909,0.4119555,-1.230199,0.3511637,-0.4816174,0.1196459,0.8460323,25.96748,-45.98498,-27.10417,1001.636
2.092735290,0.3499934,-1.11108,0.2287633,-0.4782992,0.1249933,0.8412156,26.32854,-45.61545,-27.49404,1001.636
2.095232963,0.2260692,-1.230199,0.2287633,-0.478682,0.1191785,0.8426902,26.32854,-45.61545,-27.49404,1001.634
2.097730160,0.1641071,-1.11108,0.1063629,-0.4777199,0.120823,0.8550972,26.32854,-45.61545,-27.49404,1001.634
2.100227356,0.04018293,-0.9324024,0.1063629,-0.4768308,0.1250763,0.8450354,26.32854,-45.61545,-27.49404,1001.634
2.102724552,0.1641071,-0.9324024,0.2287633,-0.4762807,0.1217026,0.8460144,26.32854,-45.61545,-27.49404,1001.634
2.105222225,0.1641071,-0.9919617,0.2287633,-0.4826121,0.1199749,0.8359996,26.32854,-45.61545,-27.49404,1001.634
2.107719421,0.2880313,-0.8728431,0.1675631,-0.4786825,0.1191721,0.8422126,26.32854,-45.61545,-27.49404,1001.634
2.110216617,0.3499934,-0.8728431,0.2287633,-0.477747,0.1216518,0.8445827,26.32854,-45.61545,-27.49404,1001.634
2.112713814,0.3499934,-0.8728431,0.1675631,-0.4835776,0.120115,0.8479407,26.32854,-45.61545,-27.49404,1001.634
2.115211487,0.1641071,-0.9324024,-0.01603752,-0.4805874,0.1167745,0.8474852,26.32854,-45.61545,-27.49404,1001.634
2.117708683,-0.02177916,-0.8132839,0.2287633,-0.4792193,0.1221249,0.8460131,26.32854,-45.61545,-27.49404,1001.634
2.120205879,-0.1457033,-0.6941652,0.2899635,-0.483611,0.1220755,0.8493598,26.32854,-45.61545,-27.49404,1001.634
2.122703075,-0.08374125,-0.8132839,0.1063629,-0.4831202,0.1215105,0.8426762,26.32854,-45.61545,-27.49404,1001.634
2.125200748,-0.08374125,-0.8132839,0.1675631,-0.4782389,0.1215898,0.8407621,26.32854,-45.61545,-27.49404,1001.634
2.127697944,-0.1457033,-0.9324024,0.2287633,-0.4772057,0.1187634,0.8455583,26.32854,-45.61545,-27.49404,1001.634
2.130195141,-0.08374125,-0.9919617,0.1675631,-0.4839986,0.1161899,0.8455806,26.32854,-45.61545,-27.49404,1001.634
2.132692337,0.102145,-0.9324024,0.2287633,-0.4800697,0.1147665,0.8417672,26.32854,-45.61545,-27.49404,1001.634
2.135190010,0.2880313,-0.9324024,0.1675631,-0.4773417,0.1259591,0.8392975,26.32854,-45.61545,-27.49404,1001.632
2.137687206,-0.02177916,-0.6941652,0.1675631,-0.4841875,0.1268986,0.8478927,26.32854,-45.61545,-27.49404,1001.632
2.140184402,-0.3935517,-0.9324024,0.1675631,-0.4864397,0.1161438,0.84606,26.32854,-45.61545,-27.49404,1001.632
2.142681598,-0.2076654,-0.8132839,0.2287633,-0.4839258,0.1117449,0.8398803,25.96734,-45.99226,-27.48685,1001.632
2.145179271,0.1641071,-0.9919617,0.1675631,-0.4786582,0.1176904,0.8403125,25.96734,-45.99226,-27.48685,1001.632
2.147676468,0.102145,-1.051521,0.1675631,-0.4767887,0.1226305,0.8436198,25.96734,-45.99226,-27.48685,1001.632
2.150173664,-0.02177916,-0.8132839,-0.01603752,-0.4793687,0.1303492,0.8440439,25.96734,-45.99226,-27.48685,1001.632
2.152670860,-0.1457033,-0.8132839,-0.07723773,-0.483216,0.1274565,0.8517095,25.96734,-45.99226,-27.48685,1001.632
2.155168533,-0.5174758,-0.6941652,-0.01603752,-0.4835346,0.117682,0.8474804,25.96734,-45.99226,-27.48685,1001.632
2.157665729,-0.4555138,-0.6941652,-0.01603752,-0.4845212,0.118127,0.8460448,25.96734,-45.99226,-27.48685,1001.632
2.160162449,-0.2076654,-0.8132839,0.04516268,-0.481104,0.1181876,0.8450871,25.96734,-45.99226,-27.48685,1001.632
2.162659645,-0.1457033,-0.8132839,0.1675631,-0.4805914,0.1167165,0.8431866,25.96734,-45.99226,-27.48685,1001.632
2.165157318,-0.02177916,-0.6941652,-0.01603752,-0.4771788,0.1173204,0.8465239,25.96734,-45.99226,-27.48685,1001.632
2.167654037,-0.2696275,-0.6941652,-0.01603752,-0.4762543,0.1202532,0.8465025,25.96734,-45.99226,-27.48685,1001.632
2.170151710,-0.3315896,-0.7537246,0.1675631,-0.4762943,0.1221171,0.8407573,25.96734,-45.99226,-27.48685,1001.632
2.172648907,-0.5174758,-0.6941652,-0.01603752,-0.4777751,0.1236896,0.8517331,25.96734,-45.99226,-27.48685,1001.632
2.175146103,-0.3935517,-0.8132839,-0.1996381,-0.4816746,0.1230945,0.8498291,25.96734,-45.99226,-27.48685,1001.636
2.177643299,-0.4555138,-0.6941652,-0.07723773,-0.479122,0.1168124,0.8479617,25.96734,-45.99226,-27.48685,1001.636
2.180140972,-0.5174758,-0.7537246,-0.1384379,-0.4796942,0.1210858,0.8417219,25.96734,-45.99226,-27.48685,1001.636
2.182638168,-0.4555138,-0.7537246,-0.1384379,-0.4841024,0.1220199,0.8460168,25.96734,-45.99226,-27.48685,1001.636
2.185135364,-0.5174758,-0.8132839,-0.1996381,-0.4816475,0.1210438,0.8417234,25.96734,-45.99226,-27.48685,1001.636
2.187632561,-0.5174758,-0.6346059,-0.2608383,-0.4822237,0.1264811,0.8498052,25.96734,-45.99226,-27.48685,1001.636
2.190130234,-0.7033621,-0.6346059,-0.1996381,-0.475318,0.1227458,0.8498278,25.96734,-45.99226,-27.48685,1001.636
2.192627430,-0.5174758,-0.6346059,-0.1384379,-0.4802416,0.1244982,0.8436085,25.98013,-46.72275,-27.09132,1001.636
2.195124626,-0.4555138,-0.6941652,-0.1996381,-0.4821418,0.1215573,0.844586,25.98013,-46.72275,-27.09132,1001.636
2.197621822,-0.6414,-0.8132839,-0.3220385,-0.4865851,0.1244261,0.8483894,25.98013,-46.72275,-27.09132,1001.636
2.200119495,-0.7653242,-0.8132839,-0.2608383,-0.4851106,0.1239852,0.849347,25.98013,-46.72275,-27.09132,1001.636
2.202616691,-0.7653242,-0.6941652,-0.3220385,-0.4816691,0.1225641,0.8464892,25.98013,-46.72275,-27.09132,1001.636
2.205113888,-0.8892484,-0.6941652,-0.3220385,-0.4786455,0.1172631,0.8446146,25.98013,-46.72275,-27.09132,1001.636
2.207611084,-0.7033621,-1.051521,-0.3832387,-0.482108,0.1196032,0.8436446,25.98013,-46.72275,-27.09132,1001.636
2.210108757,-0.7033621,-1.051521,-0.3832387,-0.4860258,0.1199658,0.8407783,25.98013,-46.72275,-27.09132,1001.636
2.212605953,-0.7653242,-1.051521,-0.3832387,-0.4830563,0.1181585,0.8460437,25.98013,-46.72275,-27.09132,1001.636
2.215103149,-0.7653242,-1.11108,-0.3220385,-0.4835498,0.1186849,0.8498616,25.98013,-46.72275,-27.09132,1001.634
2.217600345,-0.7033621,-0.9919617,-0.1996381,-0.4860439,0.1215377,0.849365,25.98013,-46.72275,-27.09132,1001.634
2.220098018,-0.7653242,-1.051521,-0.2608383,-0.485968,0.1171378,0.847008,25.98013,-46.72275,-27.09132,1001.634
2.222595215,-0.8272863,-1.11108,-0.3832387,-0.4850343,0.1195917,0.8474677,25.98013,-46.72275,-27.09132,1001.634
2.225092411,-0.8892484,-1.11108,-0.2608383,-0.4875357,0.1229492,0.8484005,25.98013,-46.72275,-27.09132,1001.634
2.227589607,-1.075135,-1.349318,-0.2608383,-0.4849871,0.1166091,0.8422346,25.98013,-46.72275,-27.09132,1001.634
2.230087280,-1.261021,-1.051521,-0.1384379,-0.4815502,0.1157313,0.8436719,25.98013,-46.72275,-27.09132,1001.634
2.232584476,-0.7033621,-1.230199,-0.3220385,-0.4942648,0.1170236,0.8517904,25.98013,-46.72275,-27.09132,1001.634
2.235081672,-0.4555138,-1.408877,-0.3220385,-0.4918263,0.1170311,0.8484452,25.98013,-46.72275,-27.09132,1001.634
2.237578869,-0.6414,-1.527995,-0.2608383,-0.488902,0.1176245,0.851783,25.98013,-46.72275,-27.09132,1001.634
2.240076065,-0.8272863,-1.766233,-0.2608383,-0.4859301,0.1152417,0.8503652,25.98013,-46.72275,-27.09132,1001.634
2.242573738,-0.8892484,-1.885351,-0.1996381,-0.4854992,0.1180867,0.8446127,25.60614,-46.36908,-27.47966,1001.634
2.245070934,-0.8272863,-1.944911,-0.2608383,-0.4836341,0.1229623,0.8431438,25.60614,-46.36908,-27.47966,1001.634
2.247568130,-0.7653242,-1.944911,-0.1996381,-0.4781672,0.1177396,0.8431779,25.60614,-46.36908,-27.47966,1001.634
2.250065327,-0.7033621,-1.766233,-0.1384379,-0.4839621,0.1142745,0.847505,25.60614,-46.36908,-27.47966,1001.634
2.252563000,-0.579438,-1.825792,-0.1384379,-0.4859818,0.1181599,0.8508221,25.60614,-46.36908,-27.47966,1001.634
2.255060196,-0.3935517,-1.944911,-0.1996381,-0.4859978,0.1191498,0.852248,25.60614,-46.36908,-27.47966,1001.631
2.257557392,-0.7653242,-2.064029,-0.1384379,-0.4821799,0.1240611,0.8503001,25.60614,-46.36908,-27.47966,1001.631
2.260054588,-0.9512104,-1.706673,-0.1996381,-0.4753424,0.1236133,0.842179,25.60614,-46.36908,-27.47966,1001.631
2.262552261,-0.8892484,-1.766233,-0.3220385,-0.4781311,0.1158177,0.8446246,25.60614,-46.36908,-27.47966,1001.631
2.265049457,-0.7033621,-2.00447,-0.1996381,-0.4772249,0.1197082,0.8436409,25.60614,-46.36908,-27.47966,1001.631
2.267546654,-0.2076654,-1.885351,-0.2608383,-0.4792215,0.1220927,0.8436251,25.60614,-46.36908,-27.47966,1001.631
2.270043850,-0.2696275,-1.944911,-0.1996381,-0.4796676,0.1202505,0.8517588,25.60614,-46.36908,-27.47966,1001.631
2.272541523,-0.8272863,-1.944911,-0.2608383,-0.4757637,0.1202959,0.8488902,25.60614,-46.36908,-27.47966,1001.631
2.275038719,-0.8272863,-1.825792,-0.3220385,-0.4748011,0.1207249,0.8431546,25.60614,-46.36908,-27.47966,1001.631
2.277535438,-1.013173,-1.766233,-0.3220385,-0.4738076,0.1197689,0.8426831,25.60614,-46.36908,-27.47966,1001.631
2.280032635,-0.8892484,-1.766233,-0.4444389,-0.4728817,0.122721,0.8440945,25.60614,-46.36908,-27.47966,1001.631
2.282529831,-0.579438,-1.587555,-0.4444389,-0.4718878,0.1217714,0.8441007,25.60614,-46.36908,-27.47966,1001.631
2.285027504,-0.4555138,-1.527995,-0.3220385,-0.4743418,0.1227604,0.8493494,25.60614,-46.36908,-27.47966,1001.631
2.287524700,-0.579438,-1.468436,-0.4444389,-0.4763449,0.1256623,0.8517182,25.60614,-46.36908,-27.47966,1001.631
2.290021896,-0.8272863,-1.349318,-0.5056391,-0.4724333,0.1252095,0.8478978,25.60614,-46.36908,-27.47966,1001.631
2.292519092,-1.199059,-1.587555,-0.5668393,-0.4728169,0.1193819,0.8484173,25.96102,-45.62337,-27.49328,1001.631
2.295016765,-1.261021,-1.527995,-0.6892397,-0.472295,0.1168242,0.8379266,25.96102,-45.62337,-27.49328,1001.631
2.297513962,-1.075135,-1.230199,-0.6892397,-0.4732725,0.1167903,0.8369721,25.96102,-45.62337,-27.49328,1001.631
2.300011158,-0.6414,-1.17064,-0.6892397,-0.4729096,0.1241511,0.8421737,25.96102,-45.62337,-27.49328,1001.631
2.302508354,-0.8892484,-1.11108,-0.5056391,-0.46899,0.1238143,0.8469505,25.96102,-45.62337,-27.49328,1001.631
2.305006027,-0.8892484,-0.9919617,-0.6280395,-0.4738513,0.1228031,0.8517371,25.96102,-45.62337,-27.49328,1001.631
2.307503223,-1.013173,-0.9919617,-0.7504399,-0.4748101,0.1218179,0.8522224,25.96102,-45.62337,-27.49328,1001.631
2.310000419,-1.013173,-0.8728431,-0.5668393,-0.4742889,0.1198615,0.8503255,25.96102,-45.62337,-27.49328,1001.631
2.312497616,-1.137097,-0.8132839,-0.6892397,-0.4772556,0.1217074,0.8479257,25.96102,-45.62337,-27.49328,1001.631
2.314994812,-1.075135,-0.8132839,-0.6280395,-0.475344,0.1242017,0.8498175,25.96102,-45.62337,-27.49328,1001.631
2.317492485,-1.075135,-0.8132839,-0.8116401,-0.4797103,0.1220758,0.8431478,25.96102,-45.62337,-27.49328,1001.631
2.319989681,-1.013173,-0.9324024,-0.8116401,-0.476658,0.1153575,0.8441493,25.96102,-45.62337,-27.49328,1001.631
2.322486877,-0.9512104,-0.7537246,-0.8116401,-0.4737553,0.1174713,0.8522528,25.96102,-45.62337,-27.49328,1001.631
2.324984073,-1.013173,-0.5750467,-0.7504399,-0.4762516,0.1202918,0.8493682,25.96102,-45.62337,-27.49328,1001.631
2.327481747,-1.137097,-0.6346059,-0.8116401,-0.474735,0.1174051,0.8489102,25.96102,-45.62337,-27.49328,1001.631
2.329978943,-1.261021,-0.5750467,-0.9340405,-0.4776702,0.1172648,0.843181,25.96102,-45.62337,-27.49328,1001.631
2.332476139,-1.137097,-0.5154874,-0.8116401,-0.4791,0.1152985,0.8436735,25.96102,-45.62337,-27.49328,1001.631
2.334973335,-1.322983,-0.455928,-0.6280395,-0.479149,0.1182554,0.8469961,25.96102,-45.62337,-27.49328,1001.635
2.337471008,-1.013173,-0.3963687,-0.8728403,-0.4772218,0.1197533,0.8469843,25.96102,-45.62337,-27.49328,1001.635
2.339968204,-1.261021,-0.3963687,-0.8116401,-0.4791563,0.1187601,0.8484254,25.96102,-45.62337,-27.49328,1001.635
2.342465401,-1.446907,-0.5154874,-0.8116401,-0.4757009,0.1163169,0.8417536,26.33486,-45.98434,-27.48762,1001.635
2.344962597,-1.013173,-0.455928,-0.9340405,-0.4757764,0.1207232,0.8445882,26.33486,-45.98434,-27.48762,1001.635
2.347460270,-1.137097,-0.455928,-0.8116401,-0.4752986,0.1211933,0.8426739,26.33486,-45.98434,-27.48762,1001.635
2.349957466,-1.137097,-0.3368095,-0.7504399,-0.4776489,0.1163522,0.8474864,26.33486,-45.98434,-27.48762,1001.635
2.352454662,-1.137097,-0.2176908,-0.9340405,-0.4767513,0.120728,0.8464994,26.33486,-45.98434,-27.48762,1001.635
2.354951858,-1.261021,-0.2772501,-0.8728403,-0.4820757,0.1182375,0.8503416,26.33486,-45.98434,-27.48762,1001.635
2.357449531,-1.384945,-0.455928,-0.6892397,-0.4790795,0.1143731,0.8470237,26.33486,-45.98434,-27.48762,1001.635
2.359946728,-1.261021,-0.5154874,-0.8116401,-0.4751999,0.1159001,0.8460552,26.33486,-45.98434,-27.48762,1001.635
2.362443924,-1.199059,-0.3368095,-0.8728403,-0.4727611,0.1159139,0.8431877,26.33486,-45.98434,-27.48762,1001.635
2.364941120,-1.261021,-0.3963687,-0.8728403,-0.4757065,0.1168473,0.8450935,26.33486,-45.98434,-27.48762,1001.635
2.367438793,-1.199059,-0.2176908,-0.6280395,-0.4792749,0.1249852,0.8421715,26.33486,-45.98434,-27.48762,1001.635
2.369935989,-1.199059,-0.1581315,-0.8116401,-0.4753233,0.1226685,0.8440964,26.33486,-45.98434,-27.48762,1001.635
2.372433185,-1.199059,-0.09857224,-0.8728403,-0.473752,0.1169086,0.8465249,26.33486,-45.98434,-27.48762,1001.635
2.374930382,-1.384945,-0.2176908,-0.8728403,-0.4795965,0.1157798,0.844148,26.33486,-45.98434,-27.48762,1001.635
2.377428055,-1.446907,-0.09857224,-0.8728403,-0.4756409,0.1135211,0.8503715,26.33486,-45.98434,-27.48762,1001.635
2.379925251,-1.261021,-0.1581315,-0.9952407,-0.4781149,0.115442,0.8527475,26.33486,-45.98434,-27.48762,1001.635
2.382422447,-1.322983,-0.2772501,-0.8116401,-0.476171,0.1153487,0.8427161,26.33486,-45.98434,-27.48762,1001.635
2.384919643,-1.261021,-0.03901294,-0.8116401,-0.4733335,0.1207951,0.8460191,26.33486,-45.98434,-27.48762,1001.635
2.387417316,-1.261021,-0.2176908,-0.7504399,-0.4771957,0.1182974,0.8469946,26.33486,-45.98434,-27.48762,1001.635
2.389914512,-1.446907,-0.09857224,-0.9340405,-0.4771271,0.1144022,0.846067,26.33486,-45.98434,-27.48762,1001.635
2.392411709,-1.508869,-0.2772501,-0.8728403,-0.476754,0.1206893,0.8436337,25.96085,-45.63187,-27.93974,1001.635
2.394908428,-1.508869,-0.455928,-0.9952407,-0.47621,0.1178396,0.847475,25.96085,-45.63187,-27.93974,1001.635
2.397405624,-1.570831,-0.2176908,-0.9340405,-0.4756814,0.1153785,0.8441486,25.96085,-45.63187,-27.93974,1001.635
2.399902820,-1.632793,-0.2772501,-0.7504399,-0.4727758,0.1169232,0.8460464,25.96085,-45.63187,-27.93974,1001.635
2.402401924,-1.570831,-0.1581315,-0.9340405,-0.4758145,0.123227,0.8503023,25.96085,-45.63187,-27.93974,1001.635
2.404897690,-1.756718,-0.1581315,-0.9952407,-0.4763229,0.1241485,0.8474301,25.96085,-45.63187,-27.93974,1001.635
2.407394886,-1.880642,-0.1581315,-0.9340405,-0.47047,0.1247856,0.8493327,25.96085,-45.63187,-27.93974,1001.635
2.409892082,-1.942604,-0.1581315,-0.9340405,-0.4728221,0.1199187,0.8522348,25.96085,-45.63187,-27.93974,1001.635
2.412389755,-2.004566,0.02054636,-0.9952407,-0.4761866,0.116345,0.8446197,25.96085,-45.63187,-27.93974,1001.635
2.414886951,-1.880642,-0.1581315,-1.117641,-0.474672,0.1140403,0.8513225,25.96085,-45.63187,-27.93974,1001.635
2.417384148,-1.81868,-0.1581315,-1.117641,-0.4757437,0.119364,0.8517628,25.96085,-45.63187,-27.93974,1001.635
2.419881344,-1.756718,0.02054636,-1.117641,-0.4722509,0.1150183,0.8479704,25.96085,-45.63187,-27.93974,1001.635
2.422379017,-1.570831,0.08010566,-0.9952407,-0.4736807,0.113052,0.848463,25.96085,-45.63187,-27.93974,1001.635
2.424876213,-1.694756,0.139665,-0.9340405,-0.4762104,0.1178332,0.8469974,25.96085,-45.63187,-27.93974,1001.635
2.427373409,-1.570831,0.08010566,-0.9952407,-0.4737107,0.1144499,0.8441541,25.96085,-45.63187,-27.93974,1001.635
2.429870605,-1.570831,0.2587835,-0.8728403,-0.4757039,0.1168859,0.8479592,25.96085,-45.63187,-27.93974,1001.635
2.432368278,-1.632793,0.3183429,-0.9340405,-0.4771866,0.1178186,0.8474757,25.96085,-45.63187,-27.93974,1001.635
2.434865475,-1.756718,0.3779022,-1.056441,-0.4790399,0.1125027,0.8522913,25.96085,-45.63187,-27.93974,1001.635
2.437362671,-1.756718,0.2587835,-1.117641,-0.4840287,0.1175878,0.8412718,25.96085,-45.63187,-27.93974,1001.635
2.439864635,-1.570831,0.3183429,-0.9952407,-0.4806057,0.1177322,0.846523,25.96085,-45.63187,-27.93974,1001.635
2.442357540,-1.508869,0.3779022,-0.8116401,-0.4772175,0.1192036,0.8422115,25.23828,-46.39399,-28.37183,1001.635
2.444854736,-1.570831,0.3779022,-0.9952407,-0.4835155,0.1167372,0.8493978,25.23828,-46.39399,-28.37183,1001.635
2.447351932,-1.756718,0.3183429,-1.178841,-0.4795222,0.1119683,0.8494294,25.23828,-46.39399,-28.37183,1001.635
2.449849129,-1.694756,0.4374615,-1.056441,-0.4795373,0.1129711,0.8518106,25.23828,-46.39399,-28.37183,1001.635
2.452346802,-1.384945,0.4374615,-0.9952407,-0.4839205,0.1118222,0.8456118,25.23828,-46.39399,-28.37183,1001.635
2.454843998,-1.446907,0.4374615,-1.056441,-0.4800396,0.1133686,0.8460761,25.23828,-46.39399,-28.37183,1001.635
2.457341194,-1.570831,0.4970208,-0.9952407,-0.4796202,0.1178821,0.8560746,25.23828,-46.39399,-28.37183,1001.633
2.459838390,-1.384945,0.6161394,-0.9340405,-0.4776805,0.1183385,0.850816,25.23828,-46.39399,-28.37183,1001.633
2.462336063,-1.508869,0.4374615,-0.8728403,-0.4800535,0.1143907,0.8498902,25.23828,-46.39399,-28.37183,1001.633
2.464833259,-1.632793,0.3183429,-0.8728403,-0.4800027,0.1114596,0.8484781,25.23828,-46.39399,-28.37183,1001.633
2.467330456,-1.508869,0.1992243,-0.9340405,-0.4746642,0.1135421,0.8503708,25.23828,-46.39399,-28.37183,1001.633
2.469827652,-1.322983,0.2587835,-0.9340405,-0.4815357,0.1153298,0.8498844,25.23828,-46.39399,-28.37183,1001.633
2.472325325,-1.137097,0.08010566,-0.8728403,-0.4776215,0.1149156,0.8489296,25.23828,-46.39399,-28.37183,1001.633
2.474822521,-1.446907,0.02054636,-0.6892397,-0.481067,0.1162787,0.847489,25.23828,-46.39399,-28.37183,1001.633
2.477319717,-1.756718,0.1992243,-0.8728403,-0.4771545,0.1158387,0.8446239,25.23828,-46.39399,-28.37183,1001.633
2.479816913,-1.632793,0.02054636,-0.9340405,-0.4810546,0.1152372,0.8422421,25.23828,-46.39399,-28.37183,1001.633
2.482314587,-1.570831,0.1992243,-0.8728403,-0.4781376,0.1163352,0.8470092,25.23828,-46.39399,-28.37183,1001.633
2.484811783,-1.632793,0.1992243,-0.9340405,-0.4732628,0.116932,0.8474797,25.23828,-46.39399,-28.37183,1001.633
2.487308979,-1.694756,0.3183429,-0.8116401,-0.4780316,0.1105375,0.8489611,25.23828,-46.39399,-28.37183,1001.633
2.489806175,-1.508869,0.2587835,-0.8728403,-0.4829408,0.1118883,0.8489544,25.23828,-46.39399,-28.37183,1001.633
2.492303848,-1.446907,0.1992243,-0.8728403,-0.476147,0.1144747,0.8498873,25.96717,-46.00076,-27.93332,1001.633
2.494801044,-1.446907,0.08010566,-0.8116401,-0.4761821,0.1164095,0.8493958,25.96717,-46.00076,-27.93332,1001.633
2.497298241,-1.446907,0.139665,-0.7504399,-0.4795569,0.1139095,0.8494156,25.96717,-46.00076,-27.93332,1001.633
2.499795437,-1.384945,0.1992243,-0.8116401,-0.4790503,0.1129623,0.8503774,25.96717,-46.00076,-27.93332,1001.633
2.502293110,-1.384945,0.1992243,-0.8728403,-0.4756235,0.1125505,0.8503784,25.96717,-46.00076,-27.93332,1001.633
2.504790306,-1.570831,0.139665,-0.9340405,-0.4746878,0.1144225,0.8436772,25.96717,-46.00076,-27.93332,1001.633
2.507287502,-1.199059,0.2587835,-0.9340405,-0.4752035,0.1158485,0.8422343,25.96717,-46.00076,-27.93332,1001.633
2.509784222,-1.261021,0.3779022,-0.9952407,-0.4698606,0.1179955,0.8489031,25.96717,-46.00076,-27.93332,1001.633
2.512281418,-1.261021,0.4970208,-1.056441,-0.4786466,0.117858,0.8527306,25.96717,-46.00076,-27.93332,1001.633
2.514779568,-1.199059,0.6756986,-0.9340405,-0.4741969,0.1144716,0.8465425,25.96717,-46.00076,-27.93332,1001.633
2.517276287,-1.446907,0.4374615,-1.056441,-0.4742316,0.1164128,0.8465287,25.96717,-46.00076,-27.93332,1001.633
2.519773483,-1.322983,0.1992243,-1.117641,-0.4762981,0.1226732,0.8460075,25.96717,-46.00076,-27.93332,1001.633
2.522270679,-1.446907,0.3779022,-1.178841,-0.4679064,0.1180504,0.849857,25.96717,-46.00076,-27.93332,1001.633
2.524767876,-1.756718,0.4970208,-0.9952407,-0.4687333,0.1098115,0.8523045,25.96717,-46.00076,-27.93332,1001.633
2.527265549,-1.570831,0.4374615,-1.240042,-0.4726286,0.1086667,0.8456277,25.96717,-46.00076,-27.93332,1001.633
2.529762745,-1.261021,0.5565801,-1.301242,-0.4717818,0.1159736,0.8460526,25.96717,-46.00076,-27.93332,1001.633
2.532259941,-1.013173,0.5565801,-1.178841,-0.4748779,0.1251119,0.8445563,25.96717,-46.00076,-27.93332,1001.633
2.534757137,-1.384945,1.033054,-1.301242,-0.4772899,0.123655,0.8483894,25.96717,-46.00076,-27.93332,1001.633
2.537254810,-1.756718,0.735258,-1.240042,-0.4820886,0.1192725,0.8551108,25.96717,-46.00076,-27.93332,1001.636
2.539752006,-1.694756,0.735258,-1.117641,-0.4877193,0.1059662,0.8494771,25.96717,-46.00076,-27.93332,1001.636
2.542249203,-1.199059,0.4970208,-1.117641,-0.4914365,0.09517982,0.8476456,25.95453,-45.26299,-27.94617,1001.636
2.544746399,-0.2696275,0.3183429,-0.9952407,-0.4818094,0.1025405,0.8380342,25.95453,-45.26299,-27.94617,1001.636
2.547244072,0.5978417,0.139665,-0.9952407,-0.47756,0.1109173,0.8403602,25.95453,-45.26299,-27.94617,1001.636
2.549741268,0.6598039,-0.03901294,-0.9340405,-0.4729033,0.1242413,0.8488603,25.95453,-45.26299,-27.94617,1001.636
2.552238464,-0.3315896,0.08010566,-0.7504399,-0.4776997,0.1205052,0.8675187,25.95453,-45.26299,-27.94617,1001.636
2.554735660,-1.880642,0.8543766,-0.9340405,-0.4859054,0.1137665,0.8489427,25.95453,-45.26299,-27.94617,1001.636
2.557233333,-1.81868,0.6161394,-0.9952407,-0.4894556,0.09317755,0.8400161,25.95453,-45.26299,-27.94617,1001.636
2.559730530,-1.013173,0.3779022,-1.117641,-0.4836153,0.09485614,0.8471657,25.95453,-45.26299,-27.94617,1001.636
2.562227726,-0.5174758,0.3779022,-1.056441,-0.4800626,0.1148696,0.849409,25.95453,-45.26299,-27.94617,1001.636
2.564729690,-0.7033621,0.3183429,-1.056441,-0.477739,0.1217678,0.8531798,25.95453,-45.26299,-27.94617,1001.636
2.567222595,-1.075135,0.4970208,-0.9340405,-0.4834859,0.1153329,0.8532291,25.95453,-45.26299,-27.94617,1001.636
2.569719791,-1.261021,0.4970208,-0.9952407,-0.4897513,0.1108931,0.8580411,25.95453,-45.26299,-27.94617,1001.636
2.572216988,-1.261021,0.4374615,-0.8116401,-0.4832372,0.1012142,0.8499861,25.95453,-45.26299,-27.94617,1001.636
2.574714184,-1.075135,0.3183429,-0.6892397,-0.4823058,0.1036359,0.8480576,25.95453,-45.26299,-27.94617,1001.636
2.577211857,-1.137097,0.1992243,-0.8116401,-0.4823131,0.1041405,0.8494869,25.95453,-45.26299,-27.94617,1001.636
2.579709053,-0.9512104,0.3183429,-0.7504399,-0.4857378,0.1045845,0.8518742,25.95453,-45.26299,-27.94617,1001.636
2.582206249,-0.7033621,0.139665,-0.5668393,-0.4838925,0.1110062,0.8570815,25.95453,-45.26299,-27.94617,1001.636
2.584703445,-0.7033621,0.02054636,-0.6280395,-0.4855373,0.1205905,0.8503268,25.95453,-45.26299,-27.94617,1001.636
2.587201118,-1.137097,0.2587835,-0.7504399,-0.4853957,0.1128644,0.8532478,25.95453,-45.26299,-27.94617,1001.636
2.589698315,-1.261021,0.3183429,-0.6280395,-0.4863837,0.11329,0.8503794,25.95453,-45.26299,-27.94617,1001.636
2.592195511,-1.199059,0.139665,-0.6280395,-0.4815954,0.118132,0.8417441,25.587,-45.27092,-27.9454,1001.636
2.594692707,-1.013173,0.02054636,-0.6280395,-0.4818929,0.1080527,0.8508918,25.587,-45.27092,-27.9454,1001.636
2.597190380,-1.137097,0.139665,-0.7504399,-0.4779648,0.1066164,0.846123,25.587,-45.27092,-27.9454,1001.636
2.599687576,-1.013173,0.08010566,-0.6280395,-0.4780808,0.1128802,0.8427348,25.587,-45.27092,-27.9454,1001.636
2.602184772,-0.7033621,0.139665,-0.5668393,-0.4834006,0.1098464,0.8422819,25.587,-45.27092,-27.9454,1001.636
2.604681969,-0.6414,0.1992243,-0.6280395,-0.4828802,0.1078771,0.8394297,25.587,-45.27092,-27.9454,1001.636
2.607179642,-0.5174758,0.08010566,-0.5668393,-0.4819989,0.1138505,0.8489398,25.587,-45.27092,-27.9454,1001.636
2.609676838,-0.5174758,0.08010566,-0.5056391,-0.4752229,0.1174011,0.8493882,25.587,-45.27092,-27.9454,1001.636
2.612174034,-0.579438,0.1992243,-0.6280395,-0.4722913,0.1174899,0.8512965,25.587,-45.27092,-27.9454,1001.636
2.614671230,-0.7653242,0.2587835,-0.4444389,-0.4795561,0.1139224,0.8503709,25.587,-45.27092,-27.9454,1001.636
2.617168903,-1.137097,0.1992243,-0.6280395,-0.4793728,0.103744,0.8513988,25.587,-45.27092,-27.9454,1001.632
2.619666099,-1.075135,0.139665,-0.6892397,-0.4749235,0.1003513,0.8447331,25.587,-45.27092,-27.9454,1001.632
2.622163296,-0.2696275,0.08010566,-0.3832387,-0.4698191,0.1149291,0.8374611,25.587,-45.27092,-27.9454,1001.632
2.624660492,-0.2076654,0.139665,-0.3832387,-0.4704215,0.1218222,0.8455325,25.587,-45.27092,-27.9454,1001.632
2.627158165,0.6598039,0.1992243,-0.4444389,-0.4712383,0.1131174,0.8494164,25.587,-45.27092,-27.9454,1001.632
2.629654407,0.6598039,-0.09857224,-0.3832387,-0.4739188,0.1273254,0.8631689,25.587,-45.27092,-27.9454,1001.632
2.632152557,-1.694756,0.2587835,-0.7504399,-0.4792156,0.1227906,0.859383,25.587,-45.27092,-27.9454,1001.632
2.634649277,-2.066528,0.9139358,-0.7504399,-0.4881583,0.102391,0.8370836,25.587,-45.27092,-27.9454,1001.632
2.637146473,-0.9512104,0.3183429,-0.9952407,-0.484027,0.08984447,0.8362154,25.587,-45.27092,-27.9454,1001.632
2.639643669,-0.2076654,0.1992243,-0.8116401,-0.4793403,0.1017706,0.8490245,25.587,-45.27092,-27.9454,1001.632
2.642141342,-0.3315896,0.3779022,-0.6280395,-0.474709,0.1159493,0.8489206,26.68309,-44.88675,-28.40058,1001.632
2.644638538,-0.3315896,0.4374615,-0.6892397,-0.4767522,0.1207151,0.8455441,26.68309,-44.88675,-28.40058,1001.632
2.647135734,0.04018293,0.1992243,-0.7504399,-0.4752872,0.1207466,0.845543,26.68309,-44.88675,-28.40058,1001.632
2.649632931,-0.08374125,0.139665,-0.6280395,-0.4811737,0.1226777,0.8541307,26.68309,-44.88675,-28.40058,1001.632
